File: Data_available_for_npj_publication/Figure S2/FigureS2_XRD_spectra.txt
2theta	Theorical_peaks	2theta	Intensity	2theta	Intensity	2theta	Intensity	2theta	Intensity	2theta	Intensity
deg	a.u.	deg	a.u.	deg	a.u.	deg	a.u.	deg	a.u.	deg	a.u.
2H-WSe2	2H-WSe2	x=0%, d =4%	x=0%, d =4%	x=1.0%, d =1%	x=1.0%, d =1%	x=1.4%, d =9% 	x=1.4%, d =9% 	x=7.6%, d =38%	x=7.6%, d =38%	x=15%, d =21%	x=15%, d =21%
13.62	1	11.01315	0.01491	11.01315	1.11658	11.01315	2.01606	11.01315	3.03337	10	4.13403
37.78	1	11.14465	0.0131875	11.14465	1.11674	11.14465	2.01698	11.14465	3.0352	10.1	4.13072
55.88	1	11.27615	0.0142371	11.27615	1.11654	11.27615	2.01531	11.27615	3.03177	10.2	4.1312
65.5	1	11.40765	0.0131068	11.40765	1.11533	11.40765	2.01518	11.40765	3.03261	10.3	4.1312
72.07	1	11.53915	0.0138065	11.53915	1.11614	11.53915	2.01496	11.53915	3.0333	10.4	4.13214
80.71	1	11.67065	0.0136181	11.67065	1.11509	11.67065	2.01601	11.67065	3.03315	10.5	4.12931
		11.80215	0.0129991	11.80215	1.11492	11.80215	2.015	11.80215	3.03581	10.6	4.12978
		11.93365	0.013672	11.93365	1.11521	11.93365	2.01645	11.93365	3.02987	10.7	4.1312
		12.06515	0.0135912	12.06515	1.11545	12.06515	2.01593	12.06515	3.03368	10.8	4.13261
		12.19665	0.0127569	12.19665	1.1165	12.19665	2.01654	12.19665	3.02895	10.9	4.1312
		12.32815	0.0143448	12.32815	1.11634	12.32815	2.01637	12.32815	3.03055	11	4.13214
		12.45965	0.0131068	12.45965	1.11703	12.45965	2.01535	12.45965	3.02735	11.1	4.13308
		12.59115	0.0120841	12.59115	1.11411	12.59115	2.01518	12.59115	3.02819	11.2	4.13025
		12.72265	0.0126223	12.72265	1.11428	12.72265	2.0154	12.72265	3.02621	11.3	4.1312
		12.85415	0.0133759	12.85415	1.11472	12.85415	2.01808	12.85415	3.03139	11.4	4.1312
		12.98565	0.0157981	12.98565	1.11666	12.98565	2.01725	12.98565	3.0397	11.5	4.13356
		13.11715	0.0272632	13.11715	1.12552	13.11715	2.02345	13.11715	3.15338	11.6	4.13167
		13.24865	0.0730158	13.24865	1.17098	13.24865	2.06428	13.24865	3.56842	11.7	4.1312
		13.38015	0.270963	13.38015	1.37093	13.38015	2.31119	13.38015	3.95428	11.8	4.1312
		13.51165	0.775829	13.51165	1.81067	13.51165	2.76651	13.51165	3.83191	11.9	4.13308
		13.64315	1.1	13.64315	2.1	13.64315	2.97765	13.64315	3.4795	12	4.13592
		13.77465	0.774295	13.77465	1.86478	13.77465	2.67544	13.77465	3.16108	12.1	4.13356
		13.90615	0.321372	13.90615	1.41526	13.90615	2.22078	13.90615	3.04503	12.2	4.13734
		14.03765	0.075438	14.03765	1.17895	14.03765	2.04584	14.03765	3.0368	12.3	4.12883
		14.16915	0.0246257	14.16915	1.12657	14.16915	2.02855	14.16915	3.03383	12.4	4.13167
		14.30065	0.0201042	14.30065	1.12455	14.30065	2.02336	14.30065	3.03505	12.5	4.14536
		14.43215	0.0190277	14.43215	1.12176	14.43215	2.02178	14.43215	3.03124	12.6	4.14064
		14.56365	0.0185163	14.56365	1.12257	14.56365	2.02002	14.56365	3.03589	12.7	4.14159
		14.69515	0.0166324	14.69515	1.1201	14.69515	2.02063	14.69515	3.03116	12.8	4.14206
		14.82665	0.01491	14.82665	1.12026	14.82665	2.01879	14.82665	3.02926	12.9	4.16048
		14.95815	0.014883	14.95815	1.11856	14.95815	2.01804	14.95815	3.03071	13	4.21574
		15.08965	0.01273	15.08965	1.1203	15.08965	2.01742	15.08965	3.02713	13.1	4.43913
		15.22115	0.014291	15.22115	1.11881	15.22115	2.01826	15.22115	3.02926	13.2	5.686
		15.35265	0.0128915	15.35265	1.11893	15.35265	2.01738	15.35265	3.03086	13.3	4.49817
		15.48415	0.0118418	15.48415	1.11804	15.48415	2.01689	15.48415	3.02598	13.4	4.16567
		15.61565	0.0132952	15.61565	1.11666	15.61565	2.01764	15.61565	3.02842	13.5	4.14489
		15.74715	0.0112767	15.74715	1.11682	15.74715	2.01698	15.74715	3.02598	13.6	4.13592
		15.87865	0.0110614	15.87865	1.11541	15.87865	2.01615	15.87865	3.02697	13.7	4.13261
		16.01015	0.00998483	16.01015	1.11553	16.01015	2.01518	16.01015	3.02492	13.8	4.13308
		16.14165	0.0107384	16.14165	1.1167	16.14165	2.01518	16.14165	3.02522	13.9	4.13072
		16.27315	0.0105231	16.27315	1.1146	16.27315	2.01676	16.27315	3.02537	14	4.13308
		16.40465	0.0112767	16.40465	1.11533	16.40465	2.01575	16.40465	3.0253	14.1	4.1312
		16.53615	0.00963496	16.53615	1.11436	16.53615	2.0154	16.53615	3.02514	14.2	4.13261
		16.66765	0.00928509	16.66765	1.11496	16.66765	2.01434	16.66765	3.02431	14.3	4.1345
		16.79915	0.00863917	16.79915	1.11541	16.79915	2.01346	16.79915	3.02172	14.4	4.12978
		16.93065	0.00815473	16.93065	1.11504	16.93065	2.01324	16.93065	3.02713	14.5	4.13025
		17.06215	0.00888139	17.06215	1.11452	17.06215	2.0143	17.06215	3.02301	14.6	4.13261
		17.19365	0.00896213	17.19365	1.11395	17.19365	2.01417	17.19365	3.0224	14.7	4.13261
		17.32515	0.00804707	17.32515	1.11517	17.32515	2.01377	17.32515	3.02172	14.8	4.13214
		17.45665	0.00796633	17.45665	1.11254	17.45665	2.0128	17.45665	3.02507	14.9	4.13308
		17.58815	0.00855843	17.58815	1.1108	17.58815	2.0132	17.58815	3.02461	15	4.12883
		17.71965	0.00734733	17.71965	1.11391	17.71965	2.01439	17.71965	3.02324	15.1	4.13072
		17.85115	0.0068898	17.85115	1.11209	17.85115	2.0125	17.85115	3.02332	15.2	4.13403
		17.98265	0.00705128	17.98265	1.11185	17.98265	2.01395	17.98265	3.02537	15.3	4.1312
		18.11415	0.00756263	18.11415	1.11286	18.11415	2.01311	18.11415	3.02172	15.4	4.13403
		18.24565	0.00710511	18.24565	1.11294	18.24565	2.01478	18.24565	3.01829	15.5	4.12978
		18.37715	0.0068898	18.37715	1.11242	18.37715	2.01184	18.37715	3.02377	15.6	4.12931
		18.50865	0.00705128	18.50865	1.11132	18.50865	2.01096	18.50865	3.02408	15.7	4.13308
		18.64015	0.00538266	18.64015	1.11181	18.64015	2.01307	18.64015	3.02118	15.8	4.13214
		18.77165	0.00632462	18.77165	1.11149	18.77165	2.01179	18.77165	3.02217	15.9	4.12978
		18.90315	0.00578636	18.90315	1.11132	18.90315	2.01179	18.90315	3.02126	16	4.13403
		19.03465	0.00619006	19.03465	1.11128	19.03465	2.01307	19.03465	3.02263	16.1	4.1345
		19.16615	0.00549031	19.16615	1.11181	19.16615	2.01087	19.16615	3.02126	16.2	4.13403
		19.29765	0.00610932	19.29765	1.11116	19.29765	2.01316	19.29765	3.02225	16.3	4.13308
		19.42915	0.00632462	19.42915	1.1125	19.42915	2.01126	19.42915	3.02133	16.4	4.13308
		19.56065	0.00511353	19.56065	1.11225	19.56065	2.01162	19.56065	3.02263	16.5	4.13356
		19.69215	0.00554414	19.69215	1.1112	19.69215	2.01188	19.69215	3.02255	16.6	4.13025
		19.82365	0.00495205	19.82365	1.11047	19.82365	2.01153	19.82365	3.02476	16.7	4.13261
		19.95515	0.0050597	19.95515	1.11068	19.95515	2.01184	19.95515	3.0224	16.8	4.13403
		20.08665	0.00597475	20.08665	1.11322	20.08665	2.01201	20.08665	3.02408	16.9	4.13261
		20.21815	0.00635154	20.21815	1.1106	20.21815	2.01302	20.21815	3.02438	17	4.13214
		20.34965	0.00653993	20.34965	1.11153	20.34965	2.01408	20.34965	3.02286	17.1	4.1312
		20.48115	0.00594784	20.48115	1.11039	20.48115	2.01377	20.48115	3.02431	17.2	4.13261
		20.61265	0.0072935	20.61265	1.11092	20.61265	2.01078	20.61265	3.02271	17.3	4.13214
		20.74415	0.00613623	20.74415	1.11181	20.74415	2.01302	20.74415	3.02149	17.4	4.13072
		20.87565	0.00554414	20.87565	1.11031	20.87565	2.01201	20.87565	3.02294	17.5	4.1312
		21.00715	0.00562488	21.00715	1.10963	21.00715	2.01333	21.00715	3.02316	17.6	4.13308
		21.13865	0.00433304	21.13865	1.11052	21.13865	2.01294	21.13865	3.02461	17.7	4.13403
		21.27015	0.00597475	21.27015	1.11092	21.27015	2.01206	21.27015	3.02979	17.8	4.13261
		21.40165	0.00581327	21.40165	1.11145	21.40165	2.00981	21.40165	3.02537	17.9	4.13261
		21.53315	0.00454835	21.53315	1.11039	21.53315	2.01113	21.53315	3.0253	18	4.13403
		21.66465	0.00352564	21.66465	1.1093	21.66465	2.01307	21.66465	3.0224	18.1	4.13356
		21.79615	0.00481748	21.79615	1.11056	21.79615	2.01148	21.79615	3.02347	18.2	4.13214
		21.92765	0.00484439	21.92765	1.11007	21.92765	2.01109	21.92765	3.02202	18.3	4.13167
		22.05915	0.00470983	22.05915	1.11027	22.05915	2.01087	22.05915	3.02133	18.4	4.1312
		22.19065	0.00473674	22.19065	1.11015	22.19065	2.01197	22.19065	3.02316	18.5	4.13308
		22.32215	0.00360638	22.32215	1.11064	22.32215	2.01258	22.32215	3.02111	18.6	4.13308
		22.45365	0.00406391	22.45365	1.1093	22.45365	2.01223	22.45365	3.02278	18.7	4.13308
		22.58515	0.00314885	22.58515	1.11056	22.58515	2.01179	22.58515	3.01905	18.8	4.13545
		22.71665	0.00430613	22.71665	1.10979	22.71665	2.01082	22.71665	3.02278	18.9	4.13592
		22.84815	0.00320268	22.84815	1.11019	22.84815	2.01206	22.84815	3.02255	19	4.13308
		22.97965	0.00296046	22.97965	1.11068	22.97965	2.01179	22.97965	3.02156	19.1	4.13639
		23.11115	0.00409082	23.11115	1.11035	23.11115	2.01148	23.11115	3.02194	19.2	4.1345
		23.24265	0.00495205	23.24265	1.1093	23.24265	2.0114	23.24265	3.02606	19.3	4.13167
		23.37415	0.0072935	23.37415	1.1095	23.37415	2.00942	23.37415	3.05197	19.4	4.13592
		23.50565	0.0107653	23.50565	1.11084	23.50565	2.01069	23.50565	3.08435	19.5	4.13214
		23.63715	0.0111959	23.63715	1.1114	23.63715	2.01241	23.63715	3.08062	19.6	4.13545
		23.76865	0.00715894	23.76865	1.10979	23.76865	2.01197	23.76865	3.05242	19.7	4.13072
		23.90015	0.00500587	23.90015	1.11072	23.90015	2.01052	23.90015	3.02659	19.8	4.13308
		24.03165	0.00368712	24.03165	1.10963	24.03165	2.01096	24.03165	3.0221	19.9	4.13545
		24.16315	0.00357947	24.16315	1.11052	24.16315	2.01082	24.16315	3.02271	20	4.13356
		24.29465	0.00489822	24.29465	1.10849	24.29465	2.00928	24.29465	3.02103	20.1	4.13639
		24.42615	0.00347181	24.42615	1.11084	24.42615	2.00986	24.42615	3.0237	20.2	4.13308
		24.55765	0.00285281	24.55765	1.11047	24.55765	2.00972	24.55765	3.01829	20.3	4.13497
		24.68915	0.00363329	24.68915	1.1089	24.68915	2.0117	24.68915	3.01996	20.4	4.13308
		24.82065	0.00287972	24.82065	1.11047	24.82065	2.01082	24.82065	3.0189	20.5	4.13167
		24.95215	0.00296046	24.95215	1.10878	24.95215	2.00994	24.95215	3.02004	20.6	4.13356
		25.08365	0.00244911	25.08365	1.10959	25.08365	2.01065	25.08365	3.01996	20.7	4.13497
		25.21515	0.00212615	25.21515	1.10914	25.21515	2.01047	25.21515	3.02156	20.8	4.13922
		25.34665	0.00220689	25.34665	1.10975	25.34665	2.00972	25.34665	3.01913	20.9	4.13545
		25.47815	0.00193776	25.47815	1.11019	25.47815	2.01003	25.47815	3.02019	21	4.13214
		25.60965	0.00271824	25.60965	1.10963	25.60965	2.01047	25.60965	3.01958	21.1	4.13686
		25.74115	0.00174936	25.74115	1.10865	25.74115	2.00994	25.74115	3.02034	21.2	4.13545
		25.87265	0.00271824	25.87265	1.10938	25.87265	2.00959	25.87265	3.02057	21.3	4.13639
		26.00415	0.00252985	26.00415	1.10987	26.00415	2.01043	26.00415	3.02248	21.4	4.13686
		26.13565	0.0024222	26.13565	1.11096	26.13565	2.0099	26.13565	3.02286	21.5	4.13639
		26.26715	0.0020185	26.26715	1.1106	26.26715	2.00968	26.26715	3.02233	21.6	4.13639
		26.39865	0.00371403	26.39865	1.11274	26.39865	2.00999	26.39865	3.02271	21.7	4.1345
		26.53015	0.00320268	26.53015	1.11642	26.53015	2.01258	26.53015	3.02294	21.8	4.13639
		26.66165	0.00317577	26.66165	1.11614	26.66165	2.0139	26.66165	3.02484	21.9	4.1397
		26.79315	0.00371403	26.79315	1.11428	26.79315	2.01329	26.79315	3.01966	22	4.1397
		26.92465	0.00406391	26.92465	1.11197	26.92465	2.00902	26.92465	3.02248	22.1	4.14111
		27.05615	0.00322959	27.05615	1.11088	27.05615	2.01148	27.05615	3.02065	22.2	4.13545
		27.18765	0.00629771	27.18765	1.11136	27.18765	2.01162	27.18765	3.02034	22.3	4.1345
		27.31915	0.0124339	27.31915	1.11553	27.31915	2.01808	27.31915	3.01775	22.4	4.13639
		27.45065	0.0168477	27.45065	1.11881	27.45065	2.01769	27.45065	3.01791	22.5	4.13545
		27.58215	0.0148561	27.58215	1.11905	27.58215	2.01355	27.58215	3.02034	22.6	4.13781
		27.71365	0.00799325	27.71365	1.11306	27.71365	2.01087	27.71365	3.02027	22.7	4.13545
		27.84515	0.00444069	27.84515	1.11124	27.84515	2.00928	27.84515	3.0192	22.8	4.13497
		27.97665	0.00355255	27.97665	1.10918	27.97665	2.00862	27.97665	3.02088	22.9	4.13545
		28.10815	0.00341799	28.10815	1.11092	28.10815	2.00911	28.10815	3.01684	23	4.13781
		28.23965	0.00314885	28.23965	1.11039	28.23965	2.00876	28.23965	3.01973	23.1	4.13875
		28.37115	0.00234146	28.37115	1.10878	28.37115	2.00884	28.37115	3.01714	23.2	4.13592
		28.50265	0.00207232	28.50265	1.10959	28.50265	2.00862	28.50265	3.01577	23.3	4.14064
		28.63415	0.00239528	28.63415	1.1095	28.63415	2.0088	28.63415	3.01402	23.4	4.14111
		28.76565	0.00234146	28.76565	1.1087	28.76565	2.0088	28.76565	3.01669	23.5	4.14017
		28.89715	0.00285281	28.89715	1.11043	28.89715	2.0081	28.89715	3.01623	23.6	4.13828
		29.02865	0.00204541	29.02865	1.10809	29.02865	2.00884	29.02865	3.01852	23.7	4.13592
		29.16015	0.00301429	29.16015	1.1093	29.16015	2.00946	29.16015	3.01928	23.8	4.13828
		29.29165	0.00236837	29.29165	1.10934	29.29165	2.00911	29.29165	3.01585	23.9	4.13545
		29.42315	0.0024222	29.42315	1.1095	29.42315	2.00959	29.42315	3.0176	24	4.13497
		29.55465	0.00188393	29.55465	1.10768	29.55465	2.0103	29.55465	3.01646	24.1	4.1345
		29.68615	0.00236837	29.68615	1.10999	29.68615	2.00796	29.68615	3.0176	24.2	4.13781
		29.81765	0.00215306	29.81765	1.10954	29.81765	2.00862	29.81765	3.01493	24.3	4.13734
		29.94915	0.0020185	29.94915	1.10906	29.94915	2.00854	29.94915	3.01608	24.4	4.13639
		30.08065	0.000726659	30.08065	1.11072	30.08065	2.00836	30.08065	3.0144	24.5	4.13214
		30.21215	0.00244911	30.21215	1.10882	30.21215	2.00779	30.21215	3.01532	24.6	4.13592
		30.34365	0.00166862	30.34365	1.10954	30.34365	2.00898	30.34365	3.01516	24.7	4.13686
		30.47515	0.00129184	30.47515	1.10886	30.47515	2.00876	30.47515	3.01631	24.8	4.13639
		30.60665	0.00220689	30.60665	1.10841	30.60665	2.00942	30.60665	3.01463	24.9	4.13592
		30.73815	0.00236837	30.73815	1.10841	30.73815	2.00779	30.73815	3.01471	25	4.13167
		30.86965	0.0016148	30.86965	1.10999	30.86965	2.00836	30.86965	3.01509	25.1	4.14631
		31.00115	0.00145332	31.00115	1.10999	31.00115	2.00924	31.00115	3.01867	25.2	4.13403
		31.13265	0.00312194	31.13265	1.11153	31.13265	2.00915	31.13265	3.01745	25.3	4.13497
		31.26415	0.00207232	31.26415	1.11484	31.26415	2.01065	31.26415	3.01852	25.4	4.13214
		31.39565	0.00551722	31.39565	1.11763	31.39565	2.0088	31.39565	3.0176	25.5	4.13167
		31.52715	0.00460217	31.52715	1.11529	31.52715	2.01038	31.52715	3.01791	25.6	4.1397
		31.65865	0.00250294	31.65865	1.11189	31.65865	2.00893	31.65865	3.01653	25.7	4.13308
		31.79015	0.00320268	31.79015	1.11011	31.79015	2.00977	31.79015	3.01874	25.8	4.13497
		31.92165	0.00804707	31.92165	1.10914	31.92165	2.00942	31.92165	3.03696	25.9	4.13308
		32.05315	0.0169823	32.05315	1.11019	32.05315	2.00964	32.05315	3.07056	26	4.13545
		32.18465	0.019566	32.18465	1.11027	32.18465	2.0092	32.18465	3.05768	26.1	4.13545
		32.31615	0.0141833	32.31615	1.11007	32.31615	2.00862	32.31615	3.02362	26.2	4.13356
		32.44765	0.0068898	32.44765	1.10849	32.44765	2.00845	32.44765	3.01593	26.3	4.13734
		32.57915	0.00277207	32.57915	1.10926	32.57915	2.00889	32.57915	3.01745	26.4	4.13261
		32.71065	0.00331033	32.71065	1.10865	32.71065	2.00774	32.71065	3.01653	26.5	4.13214
		32.84215	0.00207232	32.84215	1.10865	32.84215	2.00805	32.84215	3.01455	26.6	4.13781
		32.97365	0.00172245	32.97365	1.10857	32.97365	2.00713	32.97365	3.01448	26.7	4.13875
		33.10515	0.00131875	33.10515	1.10825	33.10515	2.0077	33.10515	3.01486	26.8	4.13734
		33.23665	0.00174936	33.23665	1.10902	33.23665	2.00906	33.23665	3.01349	26.9	4.13734
		33.36815	0.00024222	33.36815	1.10821	33.36815	2.00783	33.36815	3.0144	27	4.13403
		33.49965	0.000807399	33.49965	1.10934	33.49965	2.00893	33.49965	3.01516	27.1	4.13356
		33.63115	0.00104962	33.63115	1.10857	33.63115	2.00805	33.63115	3.016	27.2	4.13497
		33.76265	0.00231454	33.76265	1.10934	33.76265	2.00818	33.76265	3.01722	27.3	4.13734
		33.89415	0.00150714	33.89415	1.10825	33.89415	2.0084	33.89415	3.01813	27.4	4.13592
		34.02565	0.00209924	34.02565	1.10837	34.02565	2.00788	34.02565	3.02034	27.5	4.13545
		34.15715	0.000941965	34.15715	1.10882	34.15715	2.00761	34.15715	3.01996	27.6	4.13261
		34.28865	0.00191084	34.28865	1.10954	34.28865	2.00876	34.28865	3.01768	27.7	4.13214
		34.42015	0.00261059	34.42015	1.11064	34.42015	2.00915	34.42015	3.01471	27.8	4.13261
		34.55165	0.00156097	34.55165	1.11031	34.55165	2.00889	34.55165	3.01463	27.9	4.13072
		34.68315	0.00244911	34.68315	1.10995	34.68315	2.00933	34.68315	3.01707	28	4.13072
		34.81465	0.00158788	34.81465	1.10922	34.81465	2.00836	34.81465	3.0144	28.1	4.13592
		34.94615	0.000349873	34.94615	1.10809	34.94615	2.00739	34.94615	3.01532	28.2	4.13497
		35.07765	0.000834312	35.07765	1.10946	35.07765	2.00805	35.07765	3.0144	28.3	4.13072
		35.20915	0.00258368	35.20915	1.10959	35.20915	2.00867	35.20915	3.01532	28.4	4.1345
		35.34065	0.00212615	35.34065	1.11019	35.34065	2.00915	35.34065	3.02126	28.5	4.13356
		35.47215	0.00559796	35.47215	1.10954	35.47215	2.0077	35.47215	3.03147	28.6	4.13356
		35.60365	0.0113843	35.60365	1.11306	35.60365	2.00779	35.60365	3.04884	28.7	4.13214
		35.73515	0.0113574	35.73515	1.11229	35.73515	2.00862	35.73515	3.05951	28.8	4.1345
		35.86665	0.00874682	35.86665	1.11096	35.86665	2.00858	35.86665	3.04252	28.9	4.13308
		35.99815	0.00519427	35.99815	1.10882	35.99815	2.01008	35.99815	3.02667	29	4.13497
		36.12965	0.00172245	36.12965	1.10906	36.12965	2.00854	36.12965	3.01631	29.1	4.13214
		36.26115	0.00196467	36.26115	1.10942	36.26115	2.00849	36.26115	3.01417	29.2	4.13214
		36.39265	0.00107653	36.39265	1.1089	36.39265	2.00788	36.39265	3.01631	29.3	4.1312
		36.52415	0.00204541	36.52415	1.10946	36.52415	2.00849	36.52415	3.0128	29.4	4.13167
		36.65565	0.00156097	36.65565	1.10837	36.65565	2.00832	36.65565	3.01448	29.5	4.13356
		36.78715	0.00228763	36.78715	1.10914	36.78715	2.00836	36.78715	3.01272	29.6	4.13497
		36.91865	0.00126492	36.91865	1.10878	36.91865	2.00906	36.91865	3.01684	29.7	4.1312
		37.05015	0.00148023	37.05015	1.10849	37.05015	2.00999	37.05015	3.01707	29.8	4.1312
		37.18165	0.00296046	37.18165	1.10825	37.18165	2.00884	37.18165	3.01699	29.9	4.13072
		37.31315	0.00328342	37.31315	1.11161	37.31315	2.0088	37.31315	3.01829	30	4.13356
		37.44465	0.00624388	37.44465	1.111	37.44465	2.01157	37.44465	3.02423	30.1	4.13308
		37.57615	0.00764337	37.57615	1.11561	37.57615	2.01346	37.57615	3.02156	30.2	4.13497
		37.70765	0.00662067	37.70765	1.12188	37.70765	2.01698	37.70765	3.01928	30.3	4.13167
		37.83915	0.00912361	37.83915	1.12483	37.83915	2.01782	37.83915	3.01623	30.4	4.1312
		37.97065	0.00629771	37.97065	1.12374	37.97065	2.0143	37.97065	3.01554	30.5	4.13072
		38.10215	0.00460217	38.10215	1.11541	38.10215	2.00964	38.10215	3.01379	30.6	4.13025
		38.23365	0.00331033	38.23365	1.11003	38.23365	2.00889	38.23365	3.01524	30.7	4.13403
		38.36515	0.00172245	38.36515	1.10995	38.36515	2.00999	38.36515	3.01402	30.8	4.1345
		38.49665	0.0012111	38.49665	1.10865	38.49665	2.00871	38.49665	3.01417	30.9	4.13592
		38.62815	0.0026375	38.62815	1.1091	38.62815	2.0088	38.62815	3.01394	31	4.14159
		38.75965	0.00191084	38.75965	1.10959	38.75965	2.00827	38.75965	3.01432	31.1	4.13734
		38.89115	0.00102271	38.89115	1.10894	38.89115	2.00871	38.89115	3.01333	31.2	4.1312
		39.02265	0.00110344	39.02265	1.10845	39.02265	2.00862	39.02265	3.0141	31.3	4.1345
		39.15415	0.000672832	39.15415	1.1093	39.15415	2.00735	39.15415	3.01448	31.4	4.13592
		39.28565	0.000915052	39.28565	1.11011	39.28565	2.00796	39.28565	3.01501	31.5	4.12931
		39.41715	0.00107653	39.41715	1.1093	39.41715	2.00739	39.41715	3.016	31.6	4.13356
		39.54865	0.00126492	39.54865	1.10845	39.54865	2.00849	39.54865	3.01432	31.7	4.13308
		39.68015	0.000403699	39.68015	1.10999	39.68015	2.00814	39.68015	3.01402	31.8	4.13072
		39.81165	0.00123801	39.81165	1.11047	39.81165	2.00779	39.81165	3.01608	31.9	4.12789
		39.94315	0.000861225	39.94315	1.11007	39.94315	2.00796	39.94315	3.01661	32	4.12931
		40.07465	0.00271824	40.07465	1.10995	40.07465	2.01003	40.07465	3.0176	32.1	4.13214
		40.20615	0.00497896	40.20615	1.11052	40.20615	2.01082	40.20615	3.02034	32.2	4.13734
		40.33765	0.00557105	40.33765	1.11314	40.33765	2.01118	40.33765	3.01981	32.3	4.13025
		40.46915	0.00683598	40.46915	1.11298	40.46915	2.01272	40.46915	3.02172	32.4	4.13497
		40.60065	0.00764337	40.60065	1.1129	40.60065	2.01166	40.60065	3.02469	32.5	4.13025
		40.73215	0.011492	40.73215	1.11666	40.73215	2.01104	40.73215	3.03673	32.6	4.13072
		40.86365	0.0351488	40.86365	1.13579	40.86365	2.01166	40.86365	3.08313	32.7	4.1345
		40.99515	0.0947617	40.99515	1.17001	40.99515	2.01241	40.99515	3.23689	32.8	4.13356
		41.12665	0.133947	41.12665	1.18817	41.12665	2.01452	41.12665	3.39843	32.9	4.12883
		41.25815	0.116696	41.25815	1.17021	41.25815	2.04642	41.25815	3.36513	33	4.13025
		41.38965	0.136423	41.38965	1.1692	41.38965	2.1898	41.38965	3.18188	33.1	4.13214
		41.52115	0.371646	41.52115	1.28758	41.52115	2.42848	41.52115	3.06332	33.2	4.12789
		41.65265	0.711049	41.65265	1.47127	41.65265	2.53249	41.65265	3.02499	33.3	4.13072
		41.78415	0.79954	41.78415	1.51119	41.78415	2.36662	41.78415	3.01791	33.4	4.12978
		41.91565	0.485139	41.91565	1.36292	41.91565	2.13899	41.91565	3.01958	33.5	4.13025
		42.04715	0.172595	42.04715	1.20325	42.04715	2.03361	42.04715	3.01821	33.6	4.1345
		42.17865	0.0339107	42.17865	1.1332	42.17865	2.01654	42.17865	3.01829	33.7	4.13214
		42.31015	0.0145332	42.31015	1.11662	42.31015	2.01276	42.31015	3.01768	33.8	4.13639
		42.44165	0.00939274	42.44165	1.11403	42.44165	2.01276	42.44165	3.01692	33.9	4.13686
		42.57315	0.00686289	42.57315	1.11335	42.57315	2.0117	42.57315	3.01882	34	4.13592
		42.70465	0.00877373	42.70465	1.1129	42.70465	2.00981	42.70465	3.01775	34.1	4.13167
		42.83615	0.00734733	42.83615	1.1125	42.83615	2.01122	42.83615	3.01714	34.2	4.13308
		42.96765	0.00637845	42.96765	1.11165	42.96765	2.0103	42.96765	3.01768	34.3	4.12978
		43.09915	0.00532883	43.09915	1.11145	43.09915	2.0117	43.09915	3.01684	34.4	4.13308
		43.23065	0.00562488	43.23065	1.11096	43.23065	2.011	43.23065	3.01608	34.5	4.12931
		43.36215	0.00624388	43.36215	1.11035	43.36215	2.01025	43.36215	3.01524	34.6	4.12694
		43.49365	0.00476365	43.49365	1.11161	43.49365	2.00981	43.49365	3.01737	34.7	4.13261
		43.62515	0.00392934	43.62515	1.11027	43.62515	2.01047	43.62515	3.01493	34.8	4.13072
		43.75665	0.00376786	43.75665	1.1112	43.75665	2.00893	43.75665	3.01615	34.9	4.12931
		43.88815	0.00387551	43.88815	1.11023	43.88815	2.00898	43.88815	3.01684	35	4.12883
		44.01965	0.00454835	44.01965	1.11124	44.01965	2.01065	44.01965	3.01615	35.1	4.13261
		44.15115	0.00401008	44.15115	1.10975	44.15115	2.00946	44.15115	3.01585	35.2	4.13072
		44.28265	0.00331033	44.28265	1.11205	44.28265	2.00946	44.28265	3.01577	35.3	4.12883
		44.41415	0.00524809	44.41415	1.10999	44.41415	2.01038	44.41415	3.01524	35.4	4.13072
		44.54565	0.00382169	44.54565	1.11027	44.54565	2.00937	44.54565	3.01638	35.5	4.13072
		44.67715	0.0038486	44.67715	1.1106	44.67715	2.01003	44.67715	3.01539	35.6	4.13497
		44.80865	0.00339107	44.80865	1.11084	44.80865	2.00959	44.80865	3.01333	35.7	4.13308
		44.94015	0.00457526	44.94015	1.11011	44.94015	2.0099	44.94015	3.01349	35.8	4.13308
		45.07165	0.00368712	45.07165	1.11023	45.07165	2.01008	45.07165	3.01455	35.9	4.12931
		45.20315	0.00417156	45.20315	1.11039	45.20315	2.00884	45.20315	3.0176	36	4.12931
		45.33465	0.00312194	45.33465	1.10946	45.33465	2.00955	45.33465	3.0144	36.1	4.12931
		45.46615	0.0024222	45.46615	1.11136	45.46615	2.00959	45.46615	3.01676	36.2	4.13167
		45.59765	0.00349873	45.59765	1.11068	45.59765	2.00752	45.59765	3.01661	36.3	4.12742
		45.72915	0.00220689	45.72915	1.11039	45.72915	2.0092	45.72915	3.01539	36.4	4.12742
		45.86065	0.00376786	45.86065	1.11056	45.86065	2.00889	45.86065	3.01554	36.5	4.12931
		45.99215	0.00298738	45.99215	1.10975	45.99215	2.0099	45.99215	3.01775	36.6	4.12931
		46.12365	0.00287972	46.12365	1.10979	46.12365	2.00889	46.12365	3.01478	36.7	4.13072
		46.25515	0.00271824	46.25515	1.10995	46.25515	2.00902	46.25515	3.01493	36.8	4.12836
		46.38665	0.00293355	46.38665	1.11128	46.38665	2.00933	46.38665	3.0173	36.9	4.13025
		46.51815	0.0028259	46.51815	1.11246	46.51815	2.00915	46.51815	3.01867	37	4.13403
		46.64965	0.00497896	46.64965	1.11383	46.64965	2.01087	46.64965	3.01951	37.1	4.14206
		46.78115	0.00530192	46.78115	1.11379	46.78115	2.01021	46.78115	3.02697	37.2	4.14584
		46.91265	0.00737424	46.91265	1.11585	46.91265	2.0114	46.91265	3.02789	37.3	4.14631
		47.04415	0.00804707	47.04415	1.11573	47.04415	2.01571	47.04415	3.02553	37.4	4.1345
		47.17565	0.00764337	47.17565	1.12083	47.17565	2.02041	47.17565	3.01737	37.5	4.13167
		47.30715	0.00885447	47.30715	1.1296	47.30715	2.02209	47.30715	3.01623	37.6	4.12789
		47.43865	0.00944656	47.43865	1.13381	47.43865	2.01892	47.43865	3.01737	37.7	4.13072
		47.57015	0.00584018	47.57015	1.12512	47.57015	2.01465	47.57015	3.01585	37.8	4.12978
		47.70165	0.00479057	47.70165	1.11541	47.70165	2.0121	47.70165	3.0157	37.9	4.13214
		47.83315	0.00492513	47.83315	1.11092	47.83315	2.00977	47.83315	3.01554	38	4.12742
		47.96465	0.00557105	47.96465	1.11092	47.96465	2.00928	47.96465	3.02179	38.1	4.13025
		48.09615	0.00780485	48.09615	1.11189	48.09615	2.00933	48.09615	3.02568	38.2	4.12836
		48.22765	0.00950039	48.22765	1.11088	48.22765	2.00924	48.22765	3.03215	38.3	4.13214
		48.35915	0.00683598	48.35915	1.1106	48.35915	2.00867	48.35915	3.02903	38.4	4.12978
		48.49065	0.00589401	48.49065	1.11128	48.49065	2.00854	48.49065	3.02073	38.5	4.13072
		48.62215	0.00395625	48.62215	1.11019	48.62215	2.00937	48.62215	3.01874	38.6	4.13072
		48.75365	0.00247602	48.75365	1.10963	48.75365	2.00889	48.75365	3.01577	38.7	4.13545
		48.88515	0.0026375	48.88515	1.10983	48.88515	2.00867	48.88515	3.016	38.8	4.13497
		49.01665	0.00255676	49.01665	1.11092	49.01665	2.00801	49.01665	3.01509	38.9	4.13261
		49.14815	0.00188393	49.14815	1.1106	49.14815	2.00986	49.14815	3.01661	39	4.13356
		49.27965	0.00226072	49.27965	1.11088	49.27965	2.00893	49.27965	3.016	39.1	4.13025
		49.41115	0.00252985	49.41115	1.11136	49.41115	2.00986	49.41115	3.01676	39.2	4.1312
		49.54265	0.00234146	49.54265	1.10983	49.54265	2.00968	49.54265	3.01684	39.3	4.13403
		49.67415	0.00199158	49.67415	1.11068	49.67415	2.00792	49.67415	3.01692	39.4	4.1312
		49.80565	0.00123801	49.80565	1.11052	49.80565	2.0092	49.80565	3.01722	39.5	4.1312
		49.93715	0.0020185	49.93715	1.10934	49.93715	2.00761	49.93715	3.01783	39.6	4.12883
		50.06865	0.00266442	50.06865	1.11145	50.06865	2.00779	50.06865	3.02034	39.7	4.1345
		50.20015	0.00331033	50.20015	1.11068	50.20015	2.0092	50.20015	3.02065	39.8	4.1345
		50.33165	0.00217998	50.33165	1.10959	50.33165	2.00999	50.33165	3.01951	39.9	4.13686
		50.46315	0.00312194	50.46315	1.10975	50.46315	2.01012	50.46315	3.0224	40	4.13261
		50.59465	0.004656	50.59465	1.11031	50.59465	2.01025	50.59465	3.01966	40.1	4.13497
		50.72615	0.00452143	50.72615	1.11221	50.72615	2.00964	50.72615	3.0192	40.2	4.13592
		50.85765	0.00355255	50.85765	1.11088	50.85765	2.00942	50.85765	3.01753	40.3	4.1482
		50.98915	0.00468291	50.98915	1.11104	50.98915	2.01021	50.98915	3.01897	40.4	4.17701
		51.12065	0.00575944	51.12065	1.11027	51.12065	2.00867	51.12065	3.01813	40.5	4.27714
		51.25215	0.00659376	51.25215	1.1114	51.25215	2.00968	51.25215	3.01669	40.6	5.05595
		51.38365	0.00683598	51.38365	1.11027	51.38365	2.00898	51.38365	3.01478	40.7	4.82595
		51.51515	0.00366021	51.51515	1.11011	51.51515	2.00902	51.51515	3.01897	40.8	4.35129
		51.64665	0.00392934	51.64665	1.11116	51.64665	2.01038	51.64665	3.01661	40.9	4.15717
		51.77815	0.00279898	51.77815	1.10959	51.77815	2.01069	51.77815	3.016	41	4.13828
		51.90965	0.00279898	51.90965	1.11015	51.90965	2.01047	51.90965	3.0173	41.1	4.14064
		52.04115	0.00169554	52.04115	1.10946	52.04115	2.0099	52.04115	3.01707	41.2	4.13639
		52.17265	0.00228763	52.17265	1.11076	52.17265	2.00968	52.17265	3.01722	41.3	4.1345
		52.30415	0.00209924	52.30415	1.11011	52.30415	2.00849	52.30415	3.01486	41.4	4.13261
		52.43565	0.00139949	52.43565	1.11104	52.43565	2.00937	52.43565	3.01699	41.5	4.13025
		52.56715	0.00234146	52.56715	1.11056	52.56715	2.00959	52.56715	3.01532	41.6	4.13214
		52.69865	0.00266442	52.69865	1.1106	52.69865	2.00955	52.69865	3.01676	41.7	4.13214
		52.83015	0.00196467	52.83015	1.11072	52.83015	2.01038	52.83015	3.01577	41.8	4.12931
		52.96165	0.00341799	52.96165	1.11205	52.96165	2.01056	52.96165	3.01661	41.9	4.13072
		53.09315	0.00220689	53.09315	1.11254	53.09315	2.01135	53.09315	3.0173	42	4.13261
		53.22465	0.00252985	53.22465	1.11363	53.22465	2.0106	53.22465	3.01608	42.1	4.12931
		53.35615	0.00285281	53.35615	1.11314	53.35615	2.01003	53.35615	3.01463	42.2	4.13025
		53.48765	0.0028259	53.48765	1.11108	53.48765	2.01082	53.48765	3.01615	42.3	4.12978
		53.61915	0.00239528	53.61915	1.11173	53.61915	2.00986	53.61915	3.01791	42.4	4.13167
		53.75065	0.0030412	53.75065	1.11088	53.75065	2.00942	53.75065	3.01478	42.5	4.1312
		53.88215	0.00352564	53.88215	1.11153	53.88215	2.00832	53.88215	3.02019	42.6	4.12978
		54.01365	0.00395625	54.01365	1.11205	54.01365	2.00942	54.01365	3.01791	42.7	4.13025
		54.14515	0.0038486	54.14515	1.11238	54.14515	2.00871	54.14515	3.0192	42.8	4.12742
		54.27665	0.00379477	54.27665	1.11076	54.27665	2.01038	54.27665	3.01897	42.9	4.13072
		54.40815	0.00430613	54.40815	1.11153	54.40815	2.01386	54.40815	3.01516	43	4.12931
		54.53965	0.0050597	54.53965	1.11225	54.53965	2.01214	54.53965	3.02027	43.1	4.13072
		54.67115	0.00600166	54.67115	1.11456	54.67115	2.01403	54.67115	3.01768	43.2	4.12978
		54.80265	0.00637845	54.80265	1.11602	54.80265	2.01254	54.80265	3.0253	43.3	4.12883
		54.93415	0.00799325	54.93415	1.11767	54.93415	2.01417	54.93415	3.02789	43.4	4.12978
		55.06565	0.00923126	55.06565	1.11638	55.06565	2.01417	55.06565	3.03398	43.5	4.12789
		55.19715	0.00871991	55.19715	1.11456	55.19715	2.01307	55.19715	3.02888	43.6	4.12883
		55.32865	0.0106846	55.32865	1.11517	55.32865	2.01223	55.32865	3.03505	43.7	4.1312
		55.46015	0.0226341	55.46015	1.11982	55.46015	2.01619	55.46015	3.04541	43.8	4.12978
		55.59165	0.0794749	55.59165	1.15432	55.59165	2.01359	55.59165	3.09387	43.9	4.12931
		55.72315	0.155586	55.72315	1.20774	55.72315	2.01615	55.72315	3.21891	44	4.12978
		55.85465	0.201338	55.85465	1.22788	55.85465	2.01799	55.85465	3.3409	44.1	4.12931
		55.98615	0.144094	55.98615	1.1929	55.98615	2.01997	55.98615	3.2961	44.2	4.13025
		56.11765	0.07202	56.11765	1.14849	56.11765	2.04312	56.11765	3.15773	44.3	4.13025
		56.24915	0.0500587	56.24915	1.1328	56.24915	2.15082	56.24915	3.06347	44.4	4.13261
		56.38065	0.147862	56.38065	1.16608	56.38065	2.38721	56.38065	3.0304	44.5	4.13025
		56.51215	0.465169	56.51215	1.29405	56.51215	2.6292	56.51215	3.02103	44.6	4.13025
		56.64365	0.789151	56.64365	1.46763	56.64365	2.59127	56.64365	3.01874	44.7	4.12883
		56.77515	0.779866	56.77515	1.49784	56.77515	2.3371	56.77515	3.0176	44.8	4.12836
		56.90665	0.50274	56.90665	1.35952	56.90665	2.1136	56.90665	3.01783	44.9	4.12883
		57.03815	0.194045	57.03815	1.20871	57.03815	2.03084	57.03815	3.0192	45	4.12694
		57.16965	0.0504893	57.16965	1.14101	57.16965	2.01852	57.16965	3.01905	45.1	4.13072
		57.30115	0.0176013	57.30115	1.11808	57.30115	2.01628	57.30115	3.0173	45.2	4.12883
		57.43265	0.0129453	57.43265	1.11529	57.43265	2.01425	57.43265	3.01646	45.3	4.12978
		57.56415	0.0113036	57.56415	1.11371	57.56415	2.01483	57.56415	3.02111	45.4	4.12883
		57.69565	0.0097157	57.69565	1.11383	57.69565	2.01377	57.69565	3.01722	45.5	4.12742
		57.82715	0.00990409	57.82715	1.11529	57.82715	2.01329	57.82715	3.0189	45.6	4.12694
		57.95865	0.00966187	57.95865	1.11363	57.95865	2.01337	57.95865	3.01867	45.7	4.12931
		58.09015	0.00837003	58.09015	1.11331	58.09015	2.01148	58.09015	3.01753	45.8	4.12931
		58.22165	0.00683598	58.22165	1.11331	58.22165	2.01184	58.22165	3.01806	45.9	4.12978
		58.35315	0.00699746	58.35315	1.11225	58.35315	2.01219	58.35315	3.0176	46	4.12789
		58.48465	0.00619006	58.48465	1.11262	58.48465	2.0121	58.48465	3.01478	46.1	4.12978
		58.61615	0.00678215	58.61615	1.11327	58.61615	2.01192	58.61615	3.0176	46.2	4.13072
		58.74765	0.00557105	58.74765	1.111	58.74765	2.01184	58.74765	3.01669	46.3	4.1345
		58.87915	0.00562488	58.87915	1.11242	58.87915	2.00959	58.87915	3.0173	46.4	4.13686
		59.01065	0.00446761	59.01065	1.11145	59.01065	2.01201	59.01065	3.01798	46.5	4.14111
		59.14215	0.00610932	59.14215	1.11072	59.14215	2.01034	59.14215	3.01577	46.6	4.13167
		59.27365	0.00435995	59.27365	1.11153	59.27365	2.01043	59.27365	3.01608	46.7	4.13308
		59.40515	0.00511353	59.40515	1.11225	59.40515	2.01157	59.40515	3.01646	46.8	4.12836
		59.53665	0.00589401	59.53665	1.11161	59.53665	2.01016	59.53665	3.01783	46.9	4.13261
		59.66815	0.00632462	59.66815	1.11221	59.66815	2.01104	59.66815	3.01989	47	4.12931
		59.79965	0.00487131	59.79965	1.11088	59.79965	2.00924	59.79965	3.0144	47.1	4.13025
		59.93115	0.00470983	59.93115	1.11149	59.93115	2.01021	59.93115	3.01631	47.2	4.12647
		60.06265	0.00406391	60.06265	1.11335	60.06265	2.01003	60.06265	3.01448	47.3	4.1312
		60.19415	0.00382169	60.19415	1.11274	60.19415	2.00959	60.19415	3.01532	47.4	4.12931
		60.32565	0.00322959	60.32565	1.11282	60.32565	2.01162	60.32565	3.01638	47.5	4.12789
		60.45715	0.00371403	60.45715	1.11205	60.45715	2.01038	60.45715	3.01432	47.6	4.12978
		60.58865	0.00473674	60.58865	1.11104	60.58865	2.00937	60.58865	3.01753	47.7	4.12978
		60.72015	0.00336416	60.72015	1.111	60.72015	2.00876	60.72015	3.01516	47.8	4.12978
		60.85165	0.0028259	60.85165	1.11116	60.85165	2.00972	60.85165	3.01539	47.9	4.12836
		60.98315	0.00360638	60.98315	1.11035	60.98315	2.01131	60.98315	3.01554	48	4.12883
		61.11465	0.00309503	61.11465	1.11043	61.11465	2.0099	61.11465	3.01631	48.1	4.13403
		61.24615	0.00298738	61.24615	1.11015	61.24615	2.0103	61.24615	3.01653	48.2	4.12978
		61.37765	0.00360638	61.37765	1.111	61.37765	2.00955	61.37765	3.01897	48.3	4.13025
		61.50915	0.00497896	61.50915	1.11128	61.50915	2.0092	61.50915	3.01562	48.4	4.12883
		61.64065	0.00333725	61.64065	1.11068	61.64065	2.00902	61.64065	3.01874	48.5	4.12978
		61.77215	0.00390243	61.77215	1.11145	61.77215	2.00902	61.77215	3.01623	48.6	4.12883
		61.90365	0.00341799	61.90365	1.11104	61.90365	2.01012	61.90365	3.01554	48.7	4.13072
		62.03515	0.00298738	62.03515	1.11035	62.03515	2.00924	62.03515	3.01356	48.8	4.12836
		62.16665	0.00430613	62.16665	1.10975	62.16665	2.0084	62.16665	3.01509	48.9	4.13167
		62.29815	0.00382169	62.29815	1.11047	62.29815	2.00955	62.29815	3.01448	49	4.12836
		62.42965	0.00328342	62.42965	1.1112	62.42965	2.01003	62.42965	3.01554	49.1	4.12789
		62.56115	0.00312194	62.56115	1.10983	62.56115	2.00889	62.56115	3.01577	49.2	4.12789
		62.69265	0.00266442	62.69265	1.1106	62.69265	2.00796	62.69265	3.01661	49.3	4.13025
		62.82415	0.00336416	62.82415	1.10963	62.82415	2.00964	62.82415	3.01509	49.4	4.12742
		62.95565	0.00247602	62.95565	1.11039	62.95565	2.00924	62.95565	3.01631	49.5	4.13072
		63.08715	0.00250294	63.08715	1.11088	63.08715	2.00889	63.08715	3.01547	49.6	4.13167
		63.21865	0.00427921	63.21865	1.10942	63.21865	2.00937	63.21865	3.01722	49.7	4.12978
		63.35015	0.00320268	63.35015	1.11027	63.35015	2.01008	63.35015	3.01341	49.8	4.13072
		63.48165	0.00207232	63.48165	1.11039	63.48165	2.00845	63.48165	3.01387	49.9	4.12931
		63.61315	0.00374095	63.61315	1.10987	63.61315	2.00928	63.61315	3.01737	50	4.13072
		63.74465	0.00204541	63.74465	1.10971	63.74465	2.00867	63.74465	3.01509	50.1	4.1312
		63.87615	0.00277207	63.87615	1.11068	63.87615	2.0095	63.87615	3.0157	50.2	4.12836
		64.00765	0.00314885	64.00765	1.11043	64.00765	2.00871	64.00765	3.01684	50.3	4.12789
		64.13915	0.00217998	64.13915	1.11023	64.13915	2.00889	64.13915	3.01577	50.4	4.12836
		64.27065	0.00285281	64.27065	1.10999	64.27065	2.00735	64.27065	3.01646	50.5	4.12789
		64.40215	0.00277207	64.40215	1.10938	64.40215	2.00845	64.40215	3.01501	50.6	4.12789
		64.53365	0.00392934	64.53365	1.11035	64.53365	2.01008	64.53365	3.01562	50.7	4.13261
		64.66515	0.00422539	64.66515	1.10987	64.66515	2.00955	64.66515	3.01295	50.8	4.12978
		64.79665	0.00360638	64.79665	1.11015	64.79665	2.00959	64.79665	3.01539	50.9	4.13167
		64.92815	0.00217998	64.92815	1.11072	64.92815	2.00911	64.92815	3.01554	51	4.1312
		65.05965	0.00325651	65.05965	1.11039	65.05965	2.00968	65.05965	3.01935	51.1	4.13214
		65.19115	0.00279898	65.19115	1.11197	65.19115	2.0106	65.19115	3.02629	51.2	4.12931
		65.32265	0.00290664	65.32265	1.11108	65.32265	2.00893	65.32265	3.03017	51.3	4.13072
		65.45415	0.00290664	65.45415	1.11165	65.45415	2.00942	65.45415	3.03497	51.4	4.13261
		65.58565	0.00207232	65.58565	1.11189	65.58565	2.0099	65.58565	3.02728	51.5	4.12978
		65.71715	0.0022338	65.71715	1.11225	65.71715	2.01052	65.71715	3.02194	51.6	4.12789
		65.84865	0.00309503	65.84865	1.11116	65.84865	2.01104	65.84865	3.01935	51.7	4.13072
		65.98015	0.00255676	65.98015	1.1112	65.98015	2.01346	65.98015	3.0157	51.8	4.13072
		66.11165	0.00414465	66.11165	1.1129	66.11165	2.01447	66.11165	3.01661	51.9	4.13261
		66.24315	0.00543648	66.24315	1.11691	66.24315	2.01439	66.24315	3.01638	52	4.13214
		66.37465	0.00489822	66.37465	1.11695	66.37465	2.01192	66.37465	3.01608	52.1	4.13025
		66.50615	0.00417156	66.50615	1.11407	66.50615	2.00959	66.50615	3.0141	52.2	4.12978
		66.63765	0.00349873	66.63765	1.11274	66.63765	2.01047	66.63765	3.0141	52.3	4.13308
		66.76915	0.00252985	66.76915	1.11153	66.76915	2.0095	66.76915	3.01349	52.4	4.13308
		66.90065	0.0022338	66.90065	1.10938	66.90065	2.00959	66.90065	3.01623	52.5	4.13072
		67.03215	0.00212615	67.03215	1.10918	67.03215	2.00928	67.03215	3.01463	52.6	4.13875
		67.16365	0.00258368	67.16365	1.11084	67.16365	2.0099	67.16365	3.01699	52.7	4.13497
		67.29515	0.00239528	67.29515	1.11068	67.29515	2.00757	67.29515	3.01554	52.8	4.13025
		67.42665	0.0024222	67.42665	1.10878	67.42665	2.00876	67.42665	3.01463	52.9	4.13072
		67.55815	0.00366021	67.55815	1.11023	67.55815	2.00972	67.55815	3.01387	53	4.13214
		67.68965	0.00220689	67.68965	1.10934	67.68965	2.00884	67.68965	3.01516	53.1	4.13167
		67.82115	0.00271824	67.82115	1.11088	67.82115	2.00818	67.82115	3.01653	53.2	4.12978
		67.95265	0.00306812	67.95265	1.10902	67.95265	2.00858	67.95265	3.01547	53.3	4.13308
		68.08415	0.00336416	68.08415	1.11023	68.08415	2.0092	68.08415	3.01516	53.4	4.1345
		68.21565	0.00285281	68.21565	1.10894	68.21565	2.00818	68.21565	3.01593	53.5	4.13497
		68.34715	0.00293355	68.34715	1.10954	68.34715	2.00911	68.34715	3.01471	53.6	4.1345
		68.47865	0.0020185	68.47865	1.10857	68.47865	2.00871	68.47865	3.01585	53.7	4.13214
		68.61015	0.00104962	68.61015	1.10809	68.61015	2.00911	68.61015	3.01486	53.8	4.13308
		68.74165	0.00193776	68.74165	1.11027	68.74165	2.00779	68.74165	3.01631	53.9	4.13497
		68.87315	0.00134566	68.87315	1.10959	68.87315	2.00845	68.87315	3.0128	54	4.13922
		69.00465	0.0018301	69.00465	1.10975	69.00465	2.00832	69.00465	3.0144	54.1	4.13592
		69.13615	0.00296046	69.13615	1.11136	69.13615	2.007	69.13615	3.01676	54.2	4.1345
		69.26765	0.00312194	69.26765	1.1108	69.26765	2.00832	69.26765	3.016	54.3	4.13734
		69.39915	0.0030412	69.39915	1.11169	69.39915	2.00823	69.39915	3.01608	54.4	4.13545
		69.53065	0.00314885	69.53065	1.11047	69.53065	2.0088	69.53065	3.0173	54.5	4.13356
		69.66215	0.00398317	69.66215	1.11181	69.66215	2.00937	69.66215	3.01836	54.6	4.13781
		69.79365	0.0028259	69.79365	1.10979	69.79365	2.0099	69.79365	3.01631	54.7	4.13922
		69.92515	0.00199158	69.92515	1.11181	69.92515	2.00832	69.92515	3.01699	54.8	4.14489
		70.05665	0.00220689	70.05665	1.10946	70.05665	2.0084	70.05665	3.01242	54.9	4.16615
		70.18815	0.00277207	70.18815	1.10926	70.18815	2.00858	70.18815	3.01493	55	4.21479
		70.31965	0.00209924	70.31965	1.10789	70.31965	2.00889	70.31965	3.01539	55.1	4.46983
		70.45115	0.00409082	70.45115	1.10926	70.45115	2.00946	70.45115	3.01547	55.2	5.30533
		70.58265	0.00169554	70.58265	1.11035	70.58265	2.00968	70.58265	3.01653	55.3	4.8864
		70.71415	0.00172245	70.71415	1.10946	70.71415	2.00823	70.71415	3.01623	55.4	4.62097
		70.84565	0.0020185	70.84565	1.10918	70.84565	2.0099	70.84565	3.01676	55.5	4.23982
		70.97715	0.00376786	70.97715	1.10983	70.97715	2.00836	70.97715	3.01577	55.6	4.15339
		71.10865	0.00317577	71.10865	1.11088	71.10865	2.00942	71.10865	3.01806	55.7	4.14773
		71.24015	0.00470983	71.24015	1.11043	71.24015	2.0084	71.24015	3.01989	55.8	4.14536
		71.37165	0.0113843	71.37165	1.11424	71.37165	2.00889	71.37165	3.02522	55.9	4.13875
		71.50315	0.0193776	71.50315	1.11921	71.50315	2.01074	71.50315	3.04008	56	4.13545
		71.63465	0.0240067	71.63465	1.12131	71.63465	2.00845	71.63465	3.05768	56.1	4.13356
		71.76615	0.0209655	71.76615	1.11913	71.76615	2.00994	71.76615	3.04945	56.2	4.13403
		71.89765	0.0133221	71.89765	1.1144	71.89765	2.0092	71.89765	3.0448	56.3	4.13592
		72.02915	0.00718585	72.02915	1.1125	72.02915	2.01091	72.02915	3.02812	56.4	4.12978
		72.16065	0.00444069	72.16065	1.11246	72.16065	2.01223	72.16065	3.02248	56.5	4.13545
		72.29215	0.00581327	72.29215	1.11298	72.29215	2.02006	72.29215	3.0189	56.6	4.13308
		72.42365	0.0107384	72.42365	1.11286	72.42365	2.03815	72.42365	3.02118	56.7	4.13214
		72.55515	0.0325382	72.55515	1.11957	72.55515	2.05442	72.55515	3.0256	56.8	4.13308
		72.68665	0.0625465	72.68665	1.13462	72.68665	2.05588	72.68665	3.02614	56.9	4.13308
		72.81815	0.0803362	72.81815	1.14675	72.81815	2.04232	72.81815	3.02393	57	4.13214
		72.94965	0.0686558	72.94965	1.1387	72.94965	2.02371	72.94965	3.01989	57.1	4.13356
		73.08115	0.0417963	73.08115	1.13098	73.08115	2.01509	73.08115	3.01585	57.2	4.13403
		73.21265	0.0178166	73.21265	1.11735	73.21265	2.01122	73.21265	3.0144	57.3	4.12883
		73.34415	0.00761646	73.34415	1.11274	73.34415	2.01188	73.34415	3.0157	57.4	4.12836
		73.47565	0.00462909	73.47565	1.11076	73.47565	2.0121	73.47565	3.01813	57.5	4.12978
		73.60715	0.00468291	73.60715	1.11165	73.60715	2.00968	73.60715	3.01623	57.6	4.13072
		73.73865	0.00414465	73.73865	1.11189	73.73865	2.00946	73.73865	3.01471	57.7	4.1312
		73.87015	0.00363329	73.87015	1.11023	73.87015	2.00937	73.87015	3.01615	57.8	4.12931
		74.00165	0.0020185	74.00165	1.11023	74.00165	2.00867	74.00165	3.01478	57.9	4.1312
		74.13315	0.00209924	74.13315	1.11043	74.13315	2.00792	74.13315	3.01532	58	4.13072
		74.26465	0.00207232	74.26465	1.10959	74.26465	2.00981	74.26465	3.01554	58.1	4.12883
		74.39615	0.00185702	74.39615	1.10914	74.39615	2.00964	74.39615	3.01593	58.2	4.13167
		74.52765	0.00293355	74.52765	1.10946	74.52765	2.00814	74.52765	3.01341	58.3	4.12883
		74.65915	0.00156097	74.65915	1.10971	74.65915	2.00862	74.65915	3.01692	58.4	4.13214
		74.79065	0.00145332	74.79065	1.10874	74.79065	2.00968	74.79065	3.01608	58.5	4.12883
		74.92215	0.00185702	74.92215	1.10886	74.92215	2.00928	74.92215	3.01501	58.6	4.13025
		75.05365	0.00180319	75.05365	1.10837	75.05365	2.00823	75.05365	3.01768	58.7	4.12931
		75.18515	0.00250294	75.18515	1.10837	75.18515	2.00832	75.18515	3.01234	58.8	4.13072
		75.31665	0.0012111	75.31665	1.11003	75.31665	2.00805	75.31665	3.01303	58.9	4.12883
		75.44815	0.00131875	75.44815	1.1089	75.44815	2.00854	75.44815	3.01288	59	4.13214
		75.57965	0.00285281	75.57965	1.10979	75.57965	2.00986	75.57965	3.01646	59.1	4.1312
		75.71115	0.00234146	75.71115	1.1093	75.71115	2.01008	75.71115	3.01455	59.2	4.12836
		75.84265	0.00217998	75.84265	1.10959	75.84265	2.00946	75.84265	3.01524	59.3	4.12931
		75.97415	0.0028259	75.97415	1.11003	75.97415	2.00827	75.97415	3.01349	59.4	4.1312
		76.10565	0.00204541	76.10565	1.11019	76.10565	2.0095	76.10565	3.01455	59.5	4.1312
		76.23715	0.00193776	76.23715	1.10979	76.23715	2.00994	76.23715	3.0144	59.6	4.1312
		76.36865	0.00244911	76.36865	1.1108	76.36865	2.00981	76.36865	3.0157	59.7	4.12836
		76.50015	0.00115727	76.50015	1.10995	76.50015	2.00968	76.50015	3.01638	59.8	4.12931
		76.63165	0.0014264	76.63165	1.10946	76.63165	2.00884	76.63165	3.01364	59.9	4.13072
		76.76315	0.00188393	76.76315	1.1089	76.76315	2.00814	76.76315	3.01471	60	4.12978
		76.89465	0.0012111	76.89465	1.10865	76.89465	2.00858	76.89465	3.01539	60.1	4.12836
		77.02615	0.00153406	77.02615	1.10898	77.02615	2.00801	77.02615	3.01493	60.2	4.13261
		77.15765	0.00131875	77.15765	1.11007	77.15765	2.00757	77.15765	3.01463	60.3	4.12789
		77.28915	0.00172245	77.28915	1.10922	77.28915	2.00928	77.28915	3.01356	60.4	4.12883
		77.42065	0.00185702	77.42065	1.10995	77.42065	2.00867	77.42065	3.01669	60.5	4.12883
		77.55215	0.000834312	77.55215	1.10918	77.55215	2.00792	77.55215	3.01372	60.6	4.12931
		77.68365	0.00217998	77.68365	1.1093	77.68365	2.00876	77.68365	3.01326	60.7	4.12978
		77.81515	0.00231454	77.81515	1.10829	77.81515	2.00823	77.81515	3.01364	60.8	4.13072
		77.94665	0.00212615	77.94665	1.10967	77.94665	2.00977	77.94665	3.0144	60.9	4.12836
		78.07815	0.00145332	78.07815	1.10959	78.07815	2.0081	78.07815	3.01478	61	4.12789
		78.20965	0.00236837	78.20965	1.10874	78.20965	2.00937	78.20965	3.01387	61.1	4.12789
		78.34115	0.00185702	78.34115	1.10882	78.34115	2.00858	78.34115	3.01623	61.2	4.13025
		78.47265	0.000834312	78.47265	1.10894	78.47265	2.00814	78.47265	3.01501	61.3	4.13214
		78.60415	0.00207232	78.60415	1.11007	78.60415	2.00845	78.60415	3.01448	61.4	4.12978
		78.73565	0.00298738	78.73565	1.10833	78.73565	2.00836	78.73565	3.01432	61.5	4.12789
		78.86715	0.00409082	78.86715	1.10938	78.86715	2.0095	78.86715	3.01867	61.6	4.12836
		78.99865	0.00180319	78.99865	1.1108	78.99865	2.00924	78.99865	3.01478	61.7	4.12978
		79.13015	0.00115727	79.13015	1.10841	79.13015	2.00933	79.13015	3.01593	61.8	4.12931
		79.26165	0.00236837	79.26165	1.10942	79.26165	2.00845	79.26165	3.01615	61.9	4.12836
		79.39315	0.00252985	79.39315	1.11027	79.39315	2.0084	79.39315	3.01745	62	4.12883
		79.52465	0.00139949	79.52465	1.1089	79.52465	2.0088	79.52465	3.01638	62.1	4.13261
		79.65615	0.00188393	79.65615	1.11003	79.65615	2.00862	79.65615	3.01631	62.2	4.12836
		79.78765	0.00145332	79.78765	1.10886	79.78765	2.00871	79.78765	3.0173	62.3	4.12789
		79.91915	0.00325651	79.91915	1.10853	79.91915	2.00832	79.91915	3.01874	62.4	4.12978
										62.5	4.12647
										62.6	4.12789
										62.7	4.13072
										62.8	4.1312
										62.9	4.12883
										63	4.12836
										63.1	4.12931
										63.2	4.12789
										63.3	4.13214
										63.4	4.12836
										63.5	4.12931
										63.6	4.12789
										63.7	4.13072
										63.8	4.12836
										63.9	4.12836
										64	4.12883
										64.1	4.12883
										64.2	4.12978
										64.3	4.12883
										64.4	4.12789
										64.5	4.12883
										64.6	4.13356
										64.7	4.13734
										64.8	4.13734
										64.9	4.13639
										65	4.13261
										65.1	4.12789
										65.2	4.1312
										65.3	4.12978
										65.4	4.12789
										65.5	4.12931
										65.6	4.12978
										65.7	4.12978
										65.8	4.13025
										65.9	4.12931
										66	4.12836
										66.1	4.12789
										66.2	4.12742
										66.3	4.1312
										66.4	4.12931
										66.5	4.13025
										66.6	4.12931
										66.7	4.12836
										66.8	4.12742
										66.9	4.12978
										67	4.13025
										67.1	4.13072
										67.2	4.12883
										67.3	4.13025
										67.4	4.12931
										67.5	4.13072
										67.6	4.12931
										67.7	4.13025
										67.8	4.1312
										67.9	4.12978
										68	4.13072
										68.1	4.12836
										68.2	4.13167
										68.3	4.1312
										68.4	4.12931
										68.5	4.13167
										68.6	4.13072
										68.7	4.1312
										68.8	4.1312
										68.9	4.13072
										69	4.13025
										69.1	4.12931
										69.2	4.12978
										69.3	4.12647
										69.4	4.12978
										69.5	4.12836
										69.6	4.12931
										69.7	4.13167
										69.8	4.12789
										69.9	4.12836
										70	4.12836