File: Data_available_for_npj_publication/Figure 1/Figure 1d,e,f/Figure1_XRDpeaks_and_spectra.txt
2theta	Theorical peaks	2theta	I	2theta	I
deg	Intensity	deg	(a.u.)	deg	(a.u.)
2H-WSe2	2H-WSe2	x=15,d=21%	x=15,d=21%	x=0,d=4%	x=0,d=4%
13.62	1	10	0.00514684	11.01315	0.0135545
32.15	1	10.06	0.00302755	11.09205	0.0124535
41.68	1	10.12	0.00423857	11.17095	0.0137502
53.1	1	10.18	0.00363306	11.24985	0.0122578
57.8	1	10.24	0.00393582	11.32875	0.0117929
65.5	1	10.3	0.00333031	11.40765	0.0119152
67.26	1	10.36	0.00333031	11.48655	0.0129673
72.42	1	10.42	0.0027248	11.56545	0.0131141
76.18	1	10.48	0.00151378	11.64435	0.010643
83.64	1	10.54	0.00484408	11.72325	0.0132364
		10.6	0.00242204	11.80215	0.0118174
		10.66	0.0027248	11.88105	0.0125758
		10.72	0.00302755	11.95995	0.0122088
		10.78	0.00151378	12.03885	0.0117195
		10.84	0.00211929	12.11775	0.0120376
		10.9	0.00333031	12.19665	0.0115972
		10.96	0.00423857	12.27555	0.0114748
		11.02	0.00211929	12.35445	0.0143619
		11.08	0.00333031	12.43335	0.0129184
		11.14	0.00211929	12.51225	0.0128205
		11.2	0.0027248	12.59115	0.0109855
		11.26	0.00484408	12.67005	0.0115972
		11.32	0.00544959	12.74895	0.0121354
		11.38	0.00363306	12.82785	0.0114014
		11.44	0.0027248	12.90675	0.0126248
		11.5	0.00484408	12.98565	0.0143619
		11.56	0.0027248	13.06455	0.0198424
		11.62	0.00211929	13.14345	0.0292866
		11.68	0.0027248	13.22235	0.0515757
		11.74	0.0027248	13.30125	0.116706
		11.8	0.00333031	13.38015	0.24633
		11.86	0.00211929	13.45905	0.491265
		11.92	0.00454133	13.53795	0.805857
		11.98	0.00393582	13.61685	0.973698
		12.04	0.00181653	13.69575	0.955299
		12.1	0.00484408	13.77465	0.703905
		12.16	0.00363306	13.85355	0.454492
		12.22	0.00544959	13.93245	0.22409
		12.28	0.00575235	14.01135	0.0907467
		12.34	0.00544959	14.09025	0.0389264
		12.4	0.00363306	14.16915	0.022387
		12.46	0.00999092	14.24805	0.0200626
		12.52	0.0142295	14.32695	0.0174936
		12.58	0.00817439	14.40585	0.0178362
		12.64	0.00968816	14.48475	0.0160256
		12.7	0.00999092	14.56365	0.016833
		12.76	0.0087799	14.64255	0.0149491
		12.82	0.012413	14.72145	0.0147289
		12.88	0.017257	14.80035	0.0138481
		12.94	0.0317893	14.87925	0.0137013
		13	0.0575235	14.95815	0.01353
		13.06	0.102634	15.03705	0.0120376
		13.12	0.333939	15.11595	0.0129673
		13.18	0.904027	15.19485	0.0121354
		13.24	0.806842	15.27375	0.0119152
		13.3	0.238571	15.35265	0.0117195
		13.36	0.0481381	15.43155	0.0110589
		13.42	0.014835	15.51045	0.0115482
		13.48	0.0105964	15.58935	0.0109121
		13.54	0.00847714	15.66825	0.0102515
		13.6	0.00635786	15.74715	0.0102515
		13.66	0.00726612	15.82605	0.00951752
		13.72	0.00363306	15.90495	0.0103249
		13.78	0.00696337	15.98385	0.00966432
		13.84	0.00726612	16.06275	0.00998238
		13.9	0.00302755	16.14165	0.00976218
		13.96	0.00544959	16.22055	0.00978665
		14.02	0.00635786	16.29945	0.00915052
		14.08	0.00151378	16.37835	0.00966432
		14.14	0.00363306	16.45725	0.00961538
		14.2	0.00423857	16.53615	0.00875905
		14.26	0.00363306	16.61505	0.00800059
		14.32	0.00423857	16.69395	0.00836759
		14.38	0.00242204	16.77285	0.00971325
		14.44	0.00242204	16.85175	0.00748679
		14.5	0.0027248	16.93065	0.00741339
		14.56	0.00333031	17.00955	0.00778039
		14.62	0.00393582	17.08845	0.00707086
		14.68	0.00363306	17.16735	0.00768252
		14.74	0.00302755	17.24625	0.00863672
		14.8	0.00393582	17.32515	0.00731552
		14.86	0.00333031	17.40405	0.00685066
		14.92	0.00242204	17.48295	0.00804952
		14.98	0.00333031	17.56185	0.00677726
		15.04	0.00242204	17.64075	0.00853885
		15.1	0.00302755	17.71965	0.00667939
		15.16	0.00302755	17.79855	0.00614112
		15.22	0.00333031	17.87745	0.00729106
		15.28	0.00302755	17.95635	0.00697299
		15.34	0.00393582	18.03525	0.00596986
		15.4	0.00514684	18.11415	0.00687512
		15.46	0.00302755	18.19305	0.00594539
		15.52	0.00181653	18.27195	0.00596986
		15.58	0.00333031	18.35085	0.00565179
		15.64	0.00514684	18.42975	0.00538266
		15.7	0.00454133	18.50865	0.00641026
		15.76	0.00393582	18.58755	0.00653259
		15.82	0.00211929	18.66645	0.00565179
		15.88	0.00423857	18.74535	0.00680172
		15.94	0.00333031	18.82425	0.00501566
		16	0.00514684	18.90315	0.00526032
		16.06	0.00302755	18.98205	0.00626346
		16.12	0.00484408	19.06095	0.00528479
		16.18	0.00242204	19.13985	0.00474653
		16.24	0.00423857	19.21875	0.00464866
		16.3	0.00454133	19.29765	0.00555392
		16.36	0.00423857	19.37655	0.00491779
		16.42	0.00333031	19.45545	0.00545606
		16.48	0.00363306	19.53435	0.00574966
		16.54	0.00484408	19.61325	0.00504013
		16.6	0.0027248	19.69215	0.00504013
		16.66	0.00454133	19.77105	0.00496673
		16.72	0.00544959	19.84995	0.00423273
		16.78	0.00302755	19.92885	0.00501566
		16.84	0.00454133	20.00775	0.00464866
		16.9	0.00423857	20.08665	0.00543159
		16.96	0.00514684	20.16555	0.00501566
		17.02	0.00423857	20.24445	0.00550499
		17.08	0.0027248	20.32335	0.00567626
		17.14	0.00544959	20.40225	0.00609219
		17.2	0.00423857	20.48115	0.00540712
		17.26	0.00514684	20.56005	0.00484439
		17.32	0.00484408	20.63895	0.00489333
		17.38	0.00211929	20.71785	0.00555392
		17.44	0.00393582	20.79675	0.00594539
		17.5	0.00333031	20.87565	0.00504013
		17.56	0.00302755	20.95455	0.00484439
		17.62	0.00514684	21.03345	0.00596986
		17.68	0.00333031	21.11235	0.00494226
		17.74	0.00393582	21.19125	0.00437953
		17.8	0.00423857	21.27015	0.00543159
		17.86	0.00454133	21.34905	0.00469759
		17.92	0.00423857	21.42795	0.00447739
		17.98	0.00423857	21.50685	0.00423273
		18.04	0.00514684	21.58575	0.00437953
		18.1	0.00484408	21.66465	0.00320513
		18.16	0.00454133	21.74355	0.00459973
		18.22	0.0027248	21.82245	0.00452633
		18.28	0.00363306	21.90135	0.00332746
		18.34	0.00302755	21.98025	0.00330299
		18.4	0.00333031	22.05915	0.00428166
		18.46	0.00575235	22.13805	0.00433059
		18.52	0.00514684	22.21695	0.00474653
		18.58	0.00484408	22.29585	0.00464866
		18.64	0.00514684	22.37475	0.00384126
		18.7	0.00454133	22.45365	0.00369446
		18.76	0.00514684	22.53255	0.00504013
		18.82	0.00696337	22.61145	0.00408593
		18.88	0.0027248	22.69035	0.00464866
		18.94	0.00423857	22.76925	0.00325406
		19	0.00454133	22.84815	0.00291153
		19.06	0.00756888	22.92705	0.00403699
		19.12	0.00514684	23.00595	0.00335193
		19.18	0.00454133	23.08485	0.00437953
		19.24	0.00817439	23.16375	0.00420826
		19.3	0.00363306	23.24265	0.00450186
		19.36	0.00454133	23.32155	0.00496673
		19.42	0.00575235	23.40045	0.00775592
		19.48	0.00363306	23.47935	0.00866119
		19.54	0.00454133	23.55825	0.0100558
		19.6	0.0060551	23.63715	0.0101781
		19.66	0.00635786	23.71605	0.00971325
		19.72	0.00756888	23.79495	0.00694852
		19.78	0.00544959	23.87385	0.00491779
		19.84	0.00423857	23.95275	0.00369446
		19.9	0.0060551	24.03165	0.00335193
		19.96	0.00756888	24.11055	0.00340086
		20.02	0.00696337	24.18945	0.00381679
		20.08	0.0060551	24.26835	0.0030828
		20.14	0.00575235	24.34725	0.00344979
		20.2	0.00454133	24.42615	0.00315619
		20.26	0.00423857	24.50505	0.00364553
		20.32	0.00544959	24.58395	0.00347426
		20.38	0.00726612	24.66285	0.00364553
		20.44	0.00423857	24.74175	0.00318066
		20.5	0.00363306	24.82065	0.00261793
		20.56	0.00817439	24.89955	0.00335193
		20.62	0.00575235	24.97845	0.000856332
		20.68	0.0060551	25.05735	0.00237326
		20.74	0.00666061	25.13625	0.00203073
		20.8	0.00847714	25.21515	0.00193286
		20.86	0.00696337	25.29405	0.00310726
		20.92	0.0060551	25.37295	0.00337639
		20.98	0.00454133	25.45185	0.00352319
		21.04	0.00787163	25.53075	0.0024222
		21.1	0.00696337	25.60965	0.00247113
		21.16	0.00787163	25.68855	0.00239773
		21.22	0.0060551	25.76745	0.00298493
		21.28	0.00726612	25.84635	0.002202
		21.34	0.00635786	25.92525	0.00195733
		21.4	0.00696337	26.00415	0.00229986
		21.46	0.00575235	26.08305	0.002202
		21.52	0.00756888	26.16195	0.00291153
		21.58	0.00363306	26.24085	0.002202
		21.64	0.00514684	26.31975	0.00173713
		21.7	0.00544959	26.39865	0.00337639
		21.76	0.00817439	26.47755	0.0030094
		21.82	0.00756888	26.55645	0.00450186
		21.88	0.00363306	26.63535	0.002936
		21.94	0.00575235	26.71425	0.00342533
		22	0.0087799	26.79315	0.00337639
		22.06	0.00423857	26.87205	0.00320513
		22.12	0.00696337	26.95095	0.00320513
		22.18	0.00756888	27.02985	0.0023488
		22.24	0.00333031	27.10875	0.00406146
		22.3	0.00544959	27.18765	0.00572519
		22.36	0.00393582	27.26655	0.00998238
		22.42	0.0060551	27.34545	0.0119886
		22.48	0.00575235	27.42435	0.0161969
		22.54	0.0060551	27.50325	0.0147044
		22.6	0.00756888	27.58215	0.0135056
		22.66	0.00423857	27.66105	0.0104962
		22.72	0.00635786	27.73995	0.00641026
		22.78	0.00484408	27.81885	0.00506459
		22.84	0.0060551	27.89775	0.00396359
		22.9	0.0060551	27.97665	0.00322959
		22.96	0.0060551	28.05555	0.00384126
		23.02	0.00787163	28.13445	0.00344979
		23.08	0.00514684	28.21335	0.0026424
		23.14	0.00484408	28.29225	0.00259346
		23.2	0.00635786	28.37115	0.0021286
		23.26	0.0060551	28.45005	0.00237326
		23.32	0.00938541	28.52895	0.0016882
		23.38	0.00666061	28.60785	0.00210413
		23.44	0.00575235	28.68675	0.00283813
		23.5	0.00908265	28.76565	0.0021286
		23.56	0.00454133	28.84455	0.00337639
		23.62	0.00454133	28.92345	0.00129673
		23.68	0.00454133	29.00235	0.0022754
		23.74	0.00666061	29.08125	0.00229986
		23.8	0.00787163	29.16015	0.00274026
		23.86	0.00363306	29.23905	0.00222646
		23.92	0.00454133	29.31795	0.00215306
		23.98	0.0060551	29.39685	0.00188393
		24.04	0.00423857	29.47575	0.0021286
		24.1	0.00544959	29.55465	0.00171266
		24.16	0.00696337	29.63355	0.0011744
		24.22	0.00787163	29.71245	0.00137013
		24.28	0.00514684	29.79135	0.00200626
		24.34	0.0060551	29.87025	0.0017616
		24.4	0.00666061	29.94915	0.001835
		24.46	0.00423857	30.02805	0.001835
		24.52	0.00514684	30.10695	0.00159033
		24.58	0.00635786	30.18585	0.000758465
		24.64	0.00575235	30.26475	0.00181053
		24.7	0.00696337	30.34365	0.00151693
		24.76	0.00666061	30.42255	0.001468
		24.82	0.00726612	30.50145	0.00151693
		24.88	0.00575235	30.58035	0.00127226
		24.94	0.0060551	30.65925	0.00159033
		25	0.00363306	30.73815	0.00215306
		25.06	0.00666061	30.81705	0.00119886
		25.12	0.00575235	30.89595	0.00149246
		25.18	0.00333031	30.97485	0.00171266
		25.24	0.00817439	31.05375	0.00100313
		25.3	0.00575235	31.13265	0.00283813
		25.36	0.00756888	31.21155	0.00315619
		25.42	0.00787163	31.29045	0.00386573
		25.48	0.00514684	31.36935	0.00435506
		25.54	0.0060551	31.44825	0.00318066
		25.6	0.0087799	31.52715	0.00418379
		25.66	0.00514684	31.60605	0.00389019
		25.72	0.00514684	31.68495	0.0024956
		25.78	0.00363306	31.76385	0.0026424
		25.84	0.00454133	31.84275	0.00379233
		25.9	0.00454133	31.92165	0.00731552
		25.96	0.0060551	32.00055	0.0119886
		26.02	0.00575235	32.07945	0.0146066
		26.08	0.00635786	32.15835	0.0179096
		26.14	0.00666061	32.23725	0.0162458
		26.2	0.00484408	32.31615	0.0128939
		26.26	0.00666061	32.39505	0.00912605
		26.32	0.00575235	32.47395	0.00398806
		26.38	0.00726612	32.55285	0.00340086
		26.44	0.00635786	32.63175	0.00100313
		26.5	0.00393582	32.71065	0.0030094
		26.56	0.00817439	32.78955	0.0002936
		26.62	0.00696337	32.86845	0.0019084
		26.68	0.0060551	32.94735	0.0010276
		26.74	0.00454133	33.02625	0.00100313
		26.8	0.00726612	33.10515	0.00119886
		26.86	0.00575235	33.18405	0.000709532
		26.92	0.00393582	33.26295	0.00181053
		26.98	0.00726612	33.34185	0.0002936
		27.04	0.00696337	33.42075	0.00200626
		27.1	0.00484408	33.49965	0.000733999
		27.16	0.00696337	33.57855	0.000831865
		27.22	0.00696337	33.65745	0.000856332
		27.28	0.00484408	33.73635	0.0020552
		27.34	0.00484408	33.81525	0.00203073
		27.4	0.00635786	33.89415	0.00137013
		27.46	0.00817439	33.97305	0.0020552
		27.52	0.00666061	34.05195	0.00252006
		27.58	0.00363306	34.13085	0.00207966
		27.64	0.00363306	34.20975	0.00173713
		27.7	0.00393582	34.28865	0.00173713
		27.76	0.00666061	34.36755	0.00239773
		27.82	0.00544959	34.44645	0.0022754
		27.88	0.0060551	34.52535	0.00217753
		27.94	0.00423857	34.60425	0.00217753
		28	0.00302755	34.68315	0.00222646
		28.06	0.00575235	34.76205	0.00200626
		28.12	0.00302755	34.84095	0.000660599
		28.18	0.00302755	34.91985	0.000807399
		28.24	0.00544959	34.99875	0.000831865
		28.3	0.00302755	35.07765	0.000758465
		28.36	0.00817439	35.15655	0.000831865
		28.42	0.00484408	35.23545	0.000856332
		28.48	0.00514684	35.31435	0.0010276
		28.54	0.00363306	35.39325	0.00274026
		28.6	0.00484408	35.47215	0.00508906
		28.66	0.00484408	35.55105	0.00814739
		28.72	0.00726612	35.62995	0.0108387
		28.78	0.00666061	35.70885	0.0112057
		28.84	0.00211929	35.78775	0.00873459
		28.9	0.00454133	35.86665	0.00795165
		28.96	0.00484408	35.94555	0.00396359
		29.02	0.00484408	36.02445	0.00303386
		29.08	0.00575235	36.10335	0.00259346
		29.14	0.00514684	36.18225	0.001468
		29.2	0.00393582	36.26115	0.00178606
		29.26	0.00363306	36.34005	0.00159033
		29.32	0.00484408	36.41895	0.000660599
		29.38	0.00393582	36.49785	0.000905265
		29.44	0.00484408	36.57675	0.000758465
		29.5	0.00484408	36.65565	0.00141906
		29.56	0.00696337	36.73455	0.000807399
		29.62	0.00544959	36.81345	0.001835
		29.68	0.00544959	36.89235	0.00151693
		29.74	0.00423857	36.97125	0.00105206
		29.8	0.00333031	37.05015	0.00134566
		29.86	0.00484408	37.12905	0.00129673
		29.92	0.00393582	37.20795	0.00276473
		29.98	0.0027248	37.28685	0.00195733
		30.04	0.0060551	37.36575	0.00315619
		30.1	0.00454133	37.44465	0.00567626
		30.16	0.00333031	37.52355	0.00611666
		30.22	0.00211929	37.60245	0.00787825
		30.28	0.00544959	37.68135	0.00807399
		30.34	0.00393582	37.76025	0.00648366
		30.4	0.00333031	37.83915	0.00829419
		30.46	0.00635786	37.91805	0.00704639
		30.52	0.00363306	37.99695	0.00626346
		30.58	0.00423857	38.07585	0.00494226
		30.64	0.00363306	38.15475	0.0021286
		30.7	0.00514684	38.23365	0.0030094
		30.76	0.0060551	38.31255	0.00244666
		30.82	0.00393582	38.39145	0.00195733
		30.88	0.00514684	38.47035	0.00137013
		30.94	0.00726612	38.54925	0.0019818
		31	0.00999092	38.62815	0.00239773
		31.06	0.0087799	38.70705	0.001468
		31.12	0.0108992	38.78595	0.0010276
		31.18	0.00484408	38.86485	0.00195733
		31.24	0.00242204	38.94375	0.00159033
		31.3	0.00544959	39.02265	0.00100313
		31.36	0.00454133	39.10155	0.0011744
		31.42	0.00363306	39.18045	0.000856332
		31.48	0.00423857	39.25935	0.0019818
		31.54	0.00302755	39.33825	0.000905265
		31.6	0.00484408	39.41715	0.000978665
		31.66	0.00514684	39.49605	0.00112546
		31.72	0.0060551	39.57495	0.000807399
		31.78	0.00333031	39.65385	0.000880799
		31.84	0.00423857	39.73275	0.00112546
		31.9	0.00121102	39.81165	0.00112546
		31.96	0.00423857	39.89055	0.00222646
		32.02	0.00393582	39.96945	0.00217753
		32.08	0.00333031	40.04835	0.00156586
		32.14	0.00363306	40.12725	0.00320513
		32.2	0.00726612	40.20615	0.00452633
		32.26	0.00333031	40.28505	0.00506459
		32.32	0.0027248	40.36395	0.00491779
		32.38	0.00302755	40.44285	0.00636132
		32.44	0.00302755	40.52175	0.00643472
		32.5	0.0027248	40.60065	0.00694852
		32.56	0.00211929	40.67955	0.00966432
		32.62	0.00242204	40.75845	0.0153161
		32.68	0.00363306	40.83735	0.0269378
		32.74	0.00484408	40.91625	0.0535574
		32.8	0.00484408	40.99515	0.086147
		32.86	0.0027248	41.07405	0.115385
		32.92	0.00575235	41.15295	0.118321
		32.98	0.0027248	41.23185	0.109023
		33.04	0.0027248	41.31075	0.0994324
		33.1	0.00393582	41.38965	0.124021
		33.16	0.00423857	41.46855	0.226561
		33.22	0.00454133	41.54745	0.406048
		33.28	0.00211929	41.62635	0.598576
		33.34	0.00181653	41.70525	0.721105
		33.4	0.00242204	41.78415	0.726855
		33.46	0.00333031	41.86305	0.577853
		33.52	0.00363306	41.94195	0.374853
		33.58	0.00393582	42.02085	0.203195
		33.64	0.00333031	42.09975	0.0900861
		33.7	0.00393582	42.17865	0.030828
		33.76	0.00242204	42.25755	0.0146066
		33.82	0.00787163	42.33645	0.0109121
		33.88	0.00908265	42.41535	0.00963985
		33.94	0.0102937	42.49425	0.00861225
		34	0.00635786	42.57315	0.00623899
		34.06	0.0060551	42.65205	0.00721766
		34.12	0.00363306	42.73095	0.00692406
		34.18	0.00393582	42.80985	0.00570072
		34.24	0.00333031	42.88875	0.00567626
		34.3	0.00242204	42.96765	0.00579859
		34.36	0.00211929	43.04655	0.00611666
		34.42	0.00211929	43.12545	0.00621452
		34.48	0.00363306	43.20435	0.00518693
		34.54	0.00333031	43.28325	0.00548052
		34.6	0.00060551	43.36215	0.00567626
		34.66	0.000908265	43.44105	0.00484439
		34.72	0.00393582	43.51995	0.00459973
		34.78	0.00423857	43.59885	0.00423273
		34.84	0.000302755	43.67775	0.00362106
		34.9	0.00211929	43.75665	0.00342533
		34.96	0.00242204	43.83555	0.00425719
		35.02	0.0027248	43.91445	0.0028626
		35.08	0.00363306	43.99335	0.00276473
		35.14	0.00242204	44.07225	0.00499119
		35.2	0.00302755	44.15115	0.00364553
		35.26	0.00181653	44.23005	0.00366999
		35.32	0.00211929	44.30895	0.00364553
		35.38	0.00302755	44.38785	0.00335193
		35.44	0.00333031	44.46675	0.00303386
		35.5	0.00302755	44.54565	0.00347426
		35.56	0.00484408	44.62455	0.00354766
		35.62	0.00454133	44.70345	0.00359659
		35.68	0.00333031	44.78235	0.00332746
		35.74	0.00242204	44.86125	0.00359659
		35.8	0.00454133	44.94015	0.00415933
		35.86	0.00151378	45.01905	0.00362106
		35.92	0.0027248	45.09795	0.00276473
		35.98	0.00333031	45.17685	0.00259346
		36.04	0.000908265	45.25575	0.0030828
		36.1	0.00211929	45.33465	0.00283813
		36.16	0.00181653	45.41355	0.0030094
		36.22	0.00333031	45.49245	0.00303386
		36.28	0.0027248	45.57135	0.0028626
		36.34	0.00211929	45.65025	0.00320513
		36.4	0.000908265	45.72915	0.00200626
		36.46	0.00302755	45.80805	0.00357213
		36.52	0.00363306	45.88695	0.00276473
		36.58	0.00121102	45.96585	0.00305833
		36.64	0.0027248	46.04475	0.00276473
		36.7	0.00302755	46.12365	0.00261793
		36.76	0.00333031	46.20255	0.00347426
		36.82	0.00302755	46.28145	0.00232433
		36.88	0.00363306	46.36035	0.00298493
		36.94	0.0027248	46.43925	0.00266686
		37	0.00514684	46.51815	0.002569
		37.06	0.00635786	46.59705	0.00430613
		37.12	0.0108992	46.67595	0.00411039
		37.18	0.0175598	46.75485	0.00479546
		37.24	0.0166515	46.83375	0.00660599
		37.3	0.0130185	46.91265	0.00670386
		37.36	0.00484408	46.99155	0.00570072
		37.42	0.0027248	47.07045	0.00621452
		37.48	0.00484408	47.14935	0.00609219
		37.54	0.00393582	47.22825	0.00672832
		37.6	0.00121102	47.30715	0.00804952
		37.66	0.00333031	47.38605	0.00858779
		37.72	0.00151378	47.46495	0.00885692
		37.78	0.00211929	47.54385	0.00741339
		37.84	0.00242204	47.62275	0.00555392
		37.9	0.00393582	47.70165	0.00435506
		37.96	0.00393582	47.78055	0.00435506
		38.02	0.00151378	47.85945	0.00340086
		38.08	0.00544959	47.93835	0.00415933
		38.14	0.00060551	48.01725	0.00658152
		38.2	0.00151378	48.09615	0.00709532
		38.26	0.00393582	48.17505	0.00883245
		38.32	0.00242204	48.25395	0.00836759
		38.38	0.00211929	48.33285	0.00748679
		38.44	0.00121102	48.41175	0.00545606
		38.5	0.00302755	48.49065	0.00535819
		38.56	0.00393582	48.56955	0.00354766
		38.62	0.00302755	48.64845	0.0021286
		38.68	0.00484408	48.72735	0.00266686
		38.74	0.00635786	48.80625	0.00141906
		38.8	0.00575235	48.88515	0.00239773
		38.86	0.00454133	48.96405	0.0030094
		38.92	0.00454133	49.04295	0.002569
		38.98	0.00242204	49.12185	0.00200626
		39.04	0.00423857	49.20075	0.002202
		39.1	0.0027248	49.27965	0.0020552
		39.16	0.0060551	49.35855	0.00261793
		39.22	0.00242204	49.43745	0.00352319
		39.28	0.00181653	49.51635	0.00247113
		39.34	0.00423857	49.59525	0.0021286
		39.4	0.00333031	49.67415	0.00181053
		39.46	0.0027248	49.75305	0.0021286
		39.52	0.00484408	49.83195	0.00210413
		39.58	0.00333031	49.91085	0.00185946
		39.64	0.0060551	49.98975	0.002569
		39.7	0.00544959	50.06865	0.0024222
		39.76	0.00484408	50.14755	0.00288706
		39.82	0.00514684	50.22645	0.001468
		39.88	0.00454133	50.30535	0.00266686
		39.94	0.00333031	50.38425	0.00229986
		40	0.00423857	50.46315	0.00283813
		40.06	0.00726612	50.54205	0.00274026
		40.12	0.00635786	50.62095	0.00371893
		40.18	0.00575235	50.69985	0.00337639
		40.24	0.00787163	50.77875	0.00391466
		40.3	0.0142295	50.85765	0.00322959
		40.36	0.0208901	50.93655	0.00540712
		40.42	0.0387526	51.01545	0.00543159
		40.48	0.0575235	51.09435	0.00570072
		40.54	0.226764	51.17325	0.00579859
		40.6	0.596125	51.25215	0.00599432
		40.66	0.52861	51.33105	0.00504013
		40.72	0.405692	51.40995	0.00425719
		40.78	0.209204	51.48885	0.00423273
		40.84	0.0660006	51.56775	0.00261793
		40.9	0.0199818	51.64665	0.00357213
		40.96	0.0102937	51.72555	0.00159033
		41.02	0.00817439	51.80445	0.00122333
		41.08	0.00575235	51.88335	0.00232433
		41.14	0.0060551	51.96225	0.001468
		41.2	0.00666061	52.04115	0.0015414
		41.26	0.00666061	52.12005	0.002569
		41.32	0.00484408	52.19895	0.00207966
		41.38	0.00363306	52.27785	0.00144353
		41.44	0.00393582	52.35675	0.00203073
		41.5	0.0027248	52.43565	0.00127226
		41.56	0.00302755	52.51455	0.00185946
		41.62	0.00454133	52.59345	0.00239773
		41.68	0.00302755	52.67235	0.0024956
		41.74	0.00544959	52.75125	0.00129673
		41.8	0.00211929	52.83015	0.00178606
		41.86	0.00333031	52.90905	0.00296046
		41.92	0.00242204	52.98795	0.00229986
		41.98	0.00333031	53.06685	0.0027892
		42.04	0.00242204	53.14575	0.00320513
		42.1	0.00211929	53.22465	0.00229986
		42.16	0.00302755	53.30355	0.0013212
		42.22	0.00302755	53.38245	0.0016882
		42.28	0.00151378	53.46135	0.00335193
		42.34	0.00151378	53.54025	0.0026424
		42.4	0.00363306	53.61915	0.00217753
		42.46	0.00333031	53.69805	0.00252006
		42.52	0.00242204	53.77695	0.00357213
		42.58	0.00363306	53.85585	0.0027158
		42.64	0.00211929	53.93475	0.00408593
		42.7	0.0027248	54.01365	0.00359659
		42.76	0.0027248	54.09255	0.00362106
		42.82	0.00484408	54.17145	0.00239773
		42.88	0.00302755	54.25035	0.00354766
		42.94	0.00060551	54.32925	0.00364553
		43	0.00211929	54.40815	0.00391466
		43.06	0.0027248	54.48705	0.00511353
		43.12	0.00242204	54.56595	0.00516246
		43.18	0.00302755	54.64485	0.00516246
		43.24	0.00211929	54.72375	0.00609219
		43.3	0.00181653	54.80265	0.00579859
		43.36	0.00333031	54.88155	0.00606772
		43.42	0.00302755	54.96045	0.00692406
		43.48	0.00121102	55.03935	0.00711979
		43.54	0.00151378	55.11825	0.00856332
		43.6	0.00181653	55.19715	0.00792719
		43.66	0.00181653	55.27605	0.00995792
		43.72	0.000908265	55.35495	0.0111812
		43.78	0.0027248	55.43385	0.0170288
		43.84	0.000302755	55.51275	0.0355989
		43.9	0.00211929	55.59165	0.07225
		43.96	0.00363306	55.67055	0.120302
		44.02	0.00151378	55.74945	0.152672
		44.08	0.0027248	55.82835	0.185066
		44.14	0.0027248	55.90725	0.164171
		44.2	0.0027248	55.98615	0.130994
		44.26	0.00211929	56.06505	0.0937072
		44.32	0.00121102	56.14395	0.0617782
		44.38	0.00211929	56.22285	0.0441378
		44.44	0.00121102	56.30175	0.062708
		44.5	0.0027248	56.38065	0.13442
		44.56	0.00211929	56.45955	0.278993
		44.62	0.00181653	56.53845	0.49425
		44.68	0.00363306	56.61735	0.671903
		44.74	0.00181653	56.69625	0.770552
		44.8	0.00151378	56.77515	0.708969
		44.86	0.000302755	56.85405	0.56995
		44.92	0.00302755	56.93295	0.382022
		44.98	0.00242204	57.01185	0.216579
		45.04	0.00211929	57.09075	0.107066
		45.1	0.00302755	57.16965	0.0458994
		45.16	0.00181653	57.24855	0.0233901
		45.22	0.00211929	57.32745	0.0144353
		45.28	0.00242204	57.40635	0.011744
		45.34	0.00242204	57.48525	0.0100803
		45.4	0.00181653	57.56415	0.010276
		45.46	0.00121102	57.64305	0.0106185
		45.52	0.00151378	57.72195	0.00978665
		45.58	0.00151378	57.80085	0.00839205
		45.64	0.00242204	57.87975	0.00893032
		45.7	0.00211929	57.95865	0.00878352
		45.76	0.00363306	58.03755	0.00775592
		45.82	0.00151378	58.11645	0.00775592
		45.88	0.00121102	58.19535	0.00751125
		45.94	0.0027248	58.27425	0.00545606
		46	0.00121102	58.35315	0.00636132
		46.06	0.00302755	58.43205	0.00574966
		46.12	0.00363306	58.51095	0.00562732
		46.18	0.00211929	58.58985	0.00501566
		46.24	0.00393582	58.66875	0.00464866
		46.3	0.00544959	58.74765	0.00506459
		46.36	0.00575235	58.82655	0.00455079
		46.42	0.00817439	58.90545	0.00523586
		46.48	0.00938541	58.98435	0.00459973
		46.54	0.00666061	59.06325	0.00526032
		46.6	0.00363306	59.14215	0.00555392
		46.66	0.00423857	59.22105	0.00362106
		46.72	0.00302755	59.29995	0.00484439
		46.78	0.00454133	59.37885	0.00462419
		46.84	0.00211929	59.45775	0.00484439
		46.9	0.00423857	59.53665	0.00535819
		46.96	0.00121102	59.61555	0.00530926
		47.02	0.00121102	59.69445	0.00533372
		47.08	0.00181653	59.77335	0.00499119
		47.14	0.00211929	59.85225	0.00504013
		47.2	0.000302755	59.93115	0.00428166
		47.26	0.00121102	60.01005	0.00462419
		47.32	0.0027248	60.08895	0.00332746
		47.38	0.000908265	60.16785	0.0028626
		47.44	0.00333031	60.24675	0.00398806
		47.5	0.00121102	60.32565	0.002936
		47.56	0.00151378	60.40455	0.00320513
		47.62	0.000302755	60.48345	0.00291153
		47.68	0.00151378	60.56235	0.00276473
		47.74	0.00302755	60.64125	0.00305833
		47.8	0.00242204	60.72015	0.00305833
		47.86	0.00181653	60.79905	0.00247113
		47.92	0.00211929	60.87795	0.0030094
		47.98	0.00333031	60.95685	0.00315619
		48.04	0.00302755	61.03575	0.00379233
		48.1	0.00514684	61.11465	0.00281366
		48.16	0.00423857	61.19355	0.00305833
		48.22	0.00333031	61.27245	0.00344979
		48.28	0.00302755	61.35135	0.00415933
		48.34	0.00211929	61.43025	0.00462419
		48.4	0.00181653	61.50915	0.00452633
		48.46	0.00211929	61.58805	0.0027158
		48.52	0.00363306	61.66695	0.00386573
		48.58	0.00181653	61.74585	0.00337639
		48.64	0.00333031	61.82475	0.00318066
		48.7	0.00302755	61.90365	0.00310726
		48.76	0.00242204	61.98255	0.0024222
		48.82	0.00211929	62.06145	0.00261793
		48.88	0.00242204	62.14035	0.00266686
		48.94	0.00211929	62.21925	0.00276473
		49	0.00151378	62.29815	0.00347426
		49.06	0.0027248	62.37705	0.00354766
		49.12	0.00181653	62.45595	0.0019818
		49.18	0.00211929	62.53485	0.0024222
		49.24	0.00242204	62.61375	0.00357213
		49.3	0.0027248	62.69265	0.0024222
		49.36	0.00242204	62.77155	0.00163926
		49.42	0.00181653	62.85045	0.00269133
		49.48	0.0027248	62.92935	0.00151693
		49.54	0.00242204	63.00825	0.0021286
		49.6	0.00363306	63.08715	0.0022754
		49.66	0.00181653	63.16605	0.00266686
		49.72	0.00211929	63.24495	0.0016882
		49.78	0.00181653	63.32385	0.0028626
		49.84	0.00211929	63.40275	0.0024222
		49.9	0.00211929	63.48165	0.00188393
		49.96	0.00211929	63.56055	0.00232433
		50.02	0.00211929	63.63945	0.0023488
		50.08	0.000908265	63.71835	0.00254453
		50.14	0.00302755	63.79725	0.00254453
		50.2	0.00151378	63.87615	0.00252006
		50.26	0.00333031	63.95505	0.00237326
		50.32	0.00211929	64.03395	0.00305833
		50.38	0.00333031	64.11285	0.00188393
		50.44	0.00121102	64.19175	0.00156586
		50.5	0.00121102	64.27065	0.00259346
		50.56	0.00363306	64.34955	0.00281366
		50.62	0.00151378	64.42845	0.00200626
		50.68	0.00151378	64.50735	0.00254453
		50.74	0.00181653	64.58625	0.00281366
		50.8	0.00242204	64.66515	0.00384126
		50.86	0.0027248	64.74405	0.00178606
		50.92	0.00302755	64.82295	0.00313173
		50.98	0.00363306	64.90185	0.00269133
		51.04	0.0027248	64.98075	0.00315619
		51.1	0.00393582	65.05965	0.00296046
		51.16	0.00393582	65.13855	0.002936
		51.22	0.00181653	65.21745	0.00225093
		51.28	0.00181653	65.29635	0.0020552
		51.34	0.000908265	65.37525	0.00315619
		51.4	0.00423857	65.45415	0.0026424
		51.46	0.0027248	65.53305	0.00274026
		51.52	0.00302755	65.61195	0.00347426
		51.58	0.00423857	65.69085	0.00291153
		51.64	0.00242204	65.76975	0.0026424
		51.7	0.00302755	65.84865	0.00281366
		51.76	0.00302755	65.92755	0.00303386
		51.82	0.00211929	66.00645	0.002202
		51.88	0.0027248	66.08535	0.00415933
		51.94	0.00242204	66.16425	0.00533372
		52	0.00393582	66.24315	0.00494226
		52.06	0.00302755	66.32205	0.00501566
		52.12	0.00514684	66.40095	0.00474653
		52.18	0.00423857	66.47985	0.0026424
		52.24	0.00302755	66.55875	0.002569
		52.3	0.00454133	66.63765	0.00318066
		52.36	0.00393582	66.71655	0.00305833
		52.42	0.00302755	66.79545	0.002569
		52.48	0.00575235	66.87435	0.00215306
		52.54	0.0060551	66.95325	0.00159033
		52.6	0.00817439	67.03215	0.00193286
		52.66	0.0087799	67.11105	0.0019818
		52.72	0.00484408	67.18995	0.00266686
		52.78	0.00454133	67.26885	0.00374339
		52.84	0.00211929	67.34775	0.00318066
		52.9	0.00302755	67.42665	0.002202
		52.96	0.00514684	67.50555	0.0024956
		53.02	0.00393582	67.58445	0.00288706
		53.08	0.00484408	67.66335	0.00149246
		53.14	0.00302755	67.74225	0.002569
		53.2	0.00242204	67.82115	0.00247113
		53.26	0.00393582	67.90005	0.00200626
		53.32	0.00575235	67.97895	0.00137013
		53.38	0.00484408	68.05785	0.00244666
		53.44	0.00393582	68.13675	0.00222646
		53.5	0.00575235	68.21565	0.00259346
		53.56	0.00454133	68.29455	0.00178606
		53.62	0.00575235	68.37345	0.00247113
		53.68	0.00363306	68.45235	0.001835
		53.74	0.00514684	68.53125	0.00244666
		53.8	0.00454133	68.61015	0.000954198
		53.86	0.00514684	68.68905	0.0019084
		53.92	0.00635786	68.76795	0.00166373
		53.98	0.00635786	68.84685	0.00281366
		54.04	0.00333031	68.92575	0.00188393
		54.1	0.00635786	69.00465	0.00166373
		54.16	0.0060551	69.08355	0.0017616
		54.22	0.00726612	69.16245	0.0027158
		54.28	0.00423857	69.24135	0.00276473
		54.34	0.00423857	69.32025	0.00252006
		54.4	0.0060551	69.39915	0.00276473
		54.46	0.00484408	69.47805	0.00332746
		54.52	0.00756888	69.55695	0.00210413
		54.58	0.00726612	69.63585	0.00269133
		54.64	0.0060551	69.71475	0.00229986
		54.7	0.00847714	69.79365	0.002569
		54.76	0.013624	69.87255	0.00276473
		54.82	0.0184681	69.95145	0.00254453
		54.88	0.0239177	70.03035	0.000954198
		54.94	0.0402664	70.10925	0.0023488
		55	0.056918	70.18815	0.00252006
		55.06	0.0971844	70.26705	0.00141906
		55.12	0.340297	70.34595	0.0017616
		55.18	0.706328	70.42485	0.00173713
		55.24	0.693309	70.50375	0.0027158
		55.3	0.487436	70.58265	0.0015414
		55.36	0.4066	70.66155	0.0022754
		55.42	0.241296	70.74045	0.001468
		55.48	0.0941568	70.81935	0.0019818
		55.54	0.0348168	70.89825	0.00195733
		55.6	0.0175598	70.97715	0.00342533
		55.66	0.017257	71.05605	0.0030094
		55.72	0.0151378	71.13495	0.00337639
		55.78	0.00968816	71.21385	0.00357213
		55.84	0.00999092	71.29275	0.00594539
		55.9	0.00817439	71.37165	0.0103494
		55.96	0.00968816	71.45055	0.0131875
		56.02	0.0087799	71.52945	0.0210658
		56.08	0.00787163	71.60835	0.0228763
		56.14	0.00696337	71.68725	0.0213594
		56.2	0.00514684	71.76615	0.0190595
		56.26	0.00666061	71.84505	0.0144353
		56.32	0.00666061	71.92395	0.0108876
		56.38	0.00575235	72.00285	0.00751125
		56.44	0.00514684	72.08175	0.00596986
		56.5	0.0060551	72.16065	0.00403699
		56.56	0.0027248	72.23955	0.00428166
		56.62	0.00575235	72.31845	0.00560286
		56.68	0.00484408	72.39735	0.00778039
		56.74	0.00454133	72.47625	0.0140928
		56.8	0.00454133	72.55515	0.0295802
		56.86	0.00333031	72.63405	0.0446271
		56.92	0.00423857	72.71295	0.0655461
		56.98	0.00242204	72.79185	0.0734733
		57.04	0.00484408	72.87075	0.0696565
		57.1	0.00484408	72.94965	0.0624144
		57.16	0.00454133	73.02855	0.0476121
		57.22	0.00302755	73.10745	0.032247
		57.28	0.00121102	73.18635	0.020185
		57.34	0.00211929	73.26525	0.0112791
		57.4	0.00151378	73.34415	0.00692406
		57.46	0.00393582	73.42305	0.00433059
		57.52	0.00211929	73.50195	0.00555392
		57.58	0.00393582	73.58085	0.00332746
		57.64	0.00211929	73.65975	0.00344979
		57.7	0.00333031	73.73865	0.00376786
		57.76	0.00363306	73.81755	0.00232433
		57.82	0.00242204	73.89645	0.002936
		57.88	0.00151378	73.97535	0.00296046
		57.94	0.00181653	74.05425	0.00327853
		58	0.00302755	74.13315	0.0019084
		58.06	0.00181653	74.21205	0.00225093
		58.12	0.00393582	74.29095	0.00200626
		58.18	0.00211929	74.36985	0.00254453
		58.24	0.00211929	74.44875	0.00151693
		58.3	0.00181653	74.52765	0.00266686
		58.36	0.00333031	74.60655	0.00181053
		58.42	0.00575235	74.68545	0.0015414
		58.48	0.00242204	74.76435	0.0013946
		58.54	0.00211929	74.84325	0.00181053
		58.6	0.0027248	74.92215	0.0016882
		58.66	0.00151378	75.00105	0.00247113
		58.72	0.00181653	75.07995	0.0024222
		58.78	0.00181653	75.15885	0.0022754
		58.84	0.00333031	75.23775	0.00274026
		58.9	0.00181653	75.31665	0.001101
		58.96	0.00151378	75.39555	0.0021286
		59.02	0.00363306	75.47445	0.0011744
		59.08	0.00181653	75.55335	0.00163926
		59.14	0.00363306	75.63225	0.00232433
		59.2	0.00151378	75.71115	0.0021286
		59.26	0.00242204	75.79005	0.000905265
		59.32	0.00211929	75.86895	0.00210413
		59.38	0.0027248	75.94785	0.00181053
		59.44	0.00151378	76.02675	0.000831865
		59.5	0.00333031	76.10565	0.00185946
		59.56	0.00242204	76.18455	0.00185946
		59.62	0.00151378	76.26345	0.00193286
		59.68	0.00181653	76.34235	0.00354766
		59.74	0.00363306	76.42125	0.00178606
		59.8	0.00211929	76.50015	0.00105206
		59.86	0.00333031	76.57905	0.0019084
		59.92	0.00242204	76.65795	0.000660599
		59.98	0.00484408	76.73685	0.00207966
		60.04	0.00181653	76.81575	0.00171266
		60.1	0.00151378	76.89465	0.001101
		60.16	0.0027248	76.97355	0.00114993
		60.22	0.00211929	77.05245	0.00156586
		60.28	0.00181653	77.13135	0.00229986
		60.34	0.00121102	77.21025	0.00203073
		60.4	0.00181653	77.28915	0.00156586
		60.46	0.0027248	77.36805	0.00151693
		60.52	0.0027248	77.44695	0.00122333
		60.58	0.00211929	77.52585	0.00239773
		60.64	0.00151378	77.60475	0.00134566
		60.7	0.00242204	77.68365	0.0019818
		60.76	0.0027248	77.76255	0.00173713
		60.82	0.00242204	77.84145	0.00225093
		60.88	0.00242204	77.92035	0.00193286
		60.94	0.00514684	77.99925	0.00266686
		61	0.00121102	78.07815	0.0013212
		61.06	0.00060551	78.15705	0.000856332
		61.12	0.00181653	78.23595	0.00119886
		61.18	0.0027248	78.31485	0.00215306
		61.24	0.00242204	78.39375	0.00207966
		61.3	0.00393582	78.47265	0.000758465
		61.36	0.00151378	78.55155	0.00173713
		61.42	0.00302755	78.63045	0.00163926
		61.48	0.00211929	78.70935	0.00151693
		61.54	0.000908265	78.78825	0.00188393
		61.6	0.00151378	78.86715	0.00371893
		61.66	0.00181653	78.94605	0.00296046
		61.72	0.00181653	79.02495	0.0013946
		61.78	0.00242204	79.10385	0.00259346
		61.84	0.00302755	79.18275	0.00122333
		61.9	0.00151378	79.26165	0.00215306
		61.96	0.00181653	79.34055	0.000685066
		62.02	0.00363306	79.41945	0.00217753
		62.08	0.00211929	79.49835	0.00159033
		62.14	0.00121102	79.57725	0.00200626
		62.2	0.00151378	79.65615	0.00171266
		62.26	0.00211929	79.73505	0.00185946
		62.32	0.00211929	79.81395	0.00127226
		62.38	0.00181653	79.89285	0.00114993
		62.44	0.00302755	79.97175	0.0013212
		62.5	0.000302755	--	--
		62.56	0.00211929	--	--
		62.62	0.00181653	--	--
		62.68	0.00363306	--	--
		62.74	0.000908265	--	--
		62.8	0.00333031	--	--
		62.86	0.00121102	--	--
		62.92	0.00211929	--	--
		62.98	0.00121102	--	--
		63.04	0.00393582	--	--
		63.1	0.00211929	--	--
		63.16	0.00121102	--	--
		63.22	0.00181653	--	--
		63.28	0.00242204	--	--
		63.34	0.00181653	--	--
		63.4	0.00151378	--	--
		63.46	0.0027248	--	--
		63.52	0.00060551	--	--
		63.58	0.00151378	--	--
		63.64	0.00181653	--	--
		63.7	0.00302755	--	--
		63.76	0.00060551	--	--
		63.82	0.00242204	--	--
		63.88	0.00181653	--	--
		63.94	0.00333031	--	--
		64	0.00181653	--	--
		64.06	0.00333031	--	--
		64.12	0.00060551	--	--
		64.18	0.00333031	--	--
		64.24	0.00151378	--	--
		64.3	0.00181653	--	--
		64.36	0.00121102	--	--
		64.42	0.00151378	--	--
		64.48	0.00242204	--	--
		64.54	0.00363306	--	--
		64.6	0.00484408	--	--
		64.66	0.00575235	--	--
		64.72	0.00999092	--	--
		64.78	0.00544959	--	--
		64.84	0.00333031	--	--
		64.9	0.00666061	--	--
		64.96	0.0060551	--	--
		65.02	0.00242204	--	--
		65.08	0.00121102	--	--
		65.14	0.00302755	--	--
		65.2	0.00333031	--	--
		65.26	0.00333031	--	--
		65.32	0.000908265	--	--
		65.38	0.00211929	--	--
		65.44	0.00242204	--	--
		65.5	0.00211929	--	--
		65.56	0.000908265	--	--
		65.62	0.00151378	--	--
		65.68	0.00121102	--	--
		65.74	0.00060551	--	--
		65.8	0.0027248	--	--
		65.86	0.00333031	--	--
		65.92	0.00242204	--	--
		65.98	0.0027248	--	--
		66.04	0.000908265	--	--
		66.1	0.00121102	--	--
		66.16	0.00363306	--	--
		66.22	0.00302755	--	--
		66.28	0.00302755	--	--
		66.34	0.00121102	--	--
		66.4	0.00211929	--	--
		66.46	0.00211929	--	--
		66.52	0.00181653	--	--
		66.58	0.00242204	--	--
		66.64	0.00211929	--	--
		66.7	0.00151378	--	--
		66.76	0.00151378	--	--
		66.82	0.00211929	--	--
		66.88	0.00181653	--	--
		66.94	0.00121102	--	--
		67	0.0027248	--	--
		67.06	0.00302755	--	--
		67.12	0.00211929	--	--
		67.18	0.00121102	--	--
		67.24	0.00302755	--	--
		67.3	0.0027248	--	--
		67.36	0.00363306	--	--
		67.42	0.00302755	--	--
		67.48	0.00151378	--	--
		67.54	0.00302755	--	--
		67.6	0.00211929	--	--
		67.66	0.00211929	--	--
		67.72	0.000908265	--	--
		67.78	0.00393582	--	--
		67.84	0.00121102	--	--
		67.9	0.00242204	--	--
		67.96	0.00151378	--	--
		68.02	0.00121102	--	--
		68.08	0.0027248	--	--
		68.14	0.00211929	--	--
		68.2	0.00363306	--	--
		68.26	0.00211929	--	--
		68.32	0.00242204	--	--
		68.38	0.00544959	--	--
		68.44	0.00544959	--	--
		68.5	0.00363306	--	--
		68.56	0.00333031	--	--
		68.62	0.00333031	--	--
		68.68	0.0027248	--	--
		68.74	0.00333031	--	--
		68.8	0.00333031	--	--
		68.86	0.00302755	--	--
		68.92	0.00242204	--	--
		68.98	0.00060551	--	--
		69.04	0.0027248	--	--
		69.1	0.00211929	--	--
		69.16	0.00060551	--	--
		69.22	0.00211929	--	--
		69.28	0.00151378	--	--
		69.34	0.00181653	--	--
		69.4	0.00242204	--	--
		69.46	0.00181653	--	--
		69.52	0.00151378	--	--
		69.58	0.00211929	--	--
		69.64	0.00302755	--	--
		69.7	0.00363306	--	--
		69.76	0.00242204	--	--
		69.82	0.00151378	--	--
		69.88	0.00242204	--	--
		69.94	0.00242204	--	--
		70	0.00151378	--	--